Archivo de aceleración parte de la Red Nacional de Acelerógrafos (RENAC) Ecuador
          
Evento: 201604162358
Fecha del evento UTM (aammdd):                  2016    4   16
Hora del registro UTM (hhmmss): 23   58 45.00
Estación:                                      APED 
Componente:                                        Z
Frecuencia de muestreo (Hz):            1.000000e+02
Unidades: cm/s^2
_____________________________________________
15.6681 52.4544 81.5582 98.6611 104.7149 62.8017
12.7446 -30.2762 -72.8030 -37.2996 26.5068 -15.1895
-58.1602 -47.5959 -57.9924 -59.8852 -14.2644 49.6949
44.8953 3.2917 -3.8790 -11.0563 -29.3289 -70.0231
-83.0947 -20.1096 20.8367 14.7672 41.6640 61.2723
36.3462 25.4631 4.7637 0.5647 71.6957 100.6799
45.5525 -19.3504 -68.7986 -31.2606 50.5060 42.4834
-35.2603 -126.6095 -191.4420 -168.7071 -52.1666 64.5898
92.9512 64.9838 26.4401 -60.0233 -123.6795 -54.3245
35.0466 96.8999 136.2121 28.2327 -93.8119 -94.4320
-43.7436 107.4280 240.7719 183.1334 53.9422 -54.8390
-104.1416 -15.8985 78.0711 81.9680 58.4869 -41.5607
-160.1265 -142.8726 -30.9723 39.4996 32.7247 -25.7314
-85.7689 -98.3890 -57.2684 28.2874 92.3394 59.9858
-27.4722 -41.8841 7.7012 23.0132 24.6678 31.2703
1.0106 -34.9071 -31.7722 5.6277 52.5824 30.2266
-24.7340 -19.9186 -6.7107 9.3206 78.4605 118.3223
64.0383 29.8178 25.5716 -8.4107 3.3613 30.7160
3.0805 13.2637 80.6212 86.7704 63.2458 61.1713
19.7300 -29.8739 -28.7717 -5.4992 -25.3031 -76.4902
-141.3625 -215.3716 -232.2390 -165.5110 -34.8950 89.4419
123.8200 37.5522 -47.7711 -26.5128 -5.9988 18.6149
87.6464 76.4722 -17.0479 -43.1030 14.2760 19.3926
-9.5796 -8.4506 -25.3819 -2.7898 79.9501 102.3921
22.4960 -28.0098 -26.1744 -38.3868 17.2125 70.6335
40.6055 1.4463 -29.8553 -39.3276 1.1135 40.7464
22.8872 1.4027 -31.8528 -89.0186 -95.4534 -45.3527
21.4708 38.1621 -9.4757 -29.1304 20.5161 30.1080
-8.9752 13.7866 34.2514 55.0786 97.1595 23.8976
-96.5305 -129.9965 -106.7342 -38.4646 98.0086 209.1061
185.8911 70.1126 -45.4398 -86.1794 -31.4635 42.1646
92.5379 107.8897 -17.0766 -188.4924 -168.2278 -42.9454
26.5551 81.5370 59.2786 -109.6725 -183.4934 -47.3048
79.1233 126.6657 112.3335 -22.5723 -175.2743 -183.6445
-39.6057 102.7184 154.5330 189.8436 188.5088 98.8197
-27.7724 -96.2125 -61.9318 -50.8697 -81.6337 -64.1870
-75.9136 -117.4430 -81.9062 13.5298 72.4290 102.0213
98.4869 7.0404 -92.1674 -120.5899 -71.5042 -25.8138
6.8680 42.9868 -5.7670 -51.0208 -38.9002 -44.6528
-23.6327 21.5478 -6.7338 18.1580 134.0098 135.1360
93.4009 53.8412 -66.3013 -142.8678 -82.6839 18.0125
49.0944 22.3237 -34.2415 -83.3522 -38.5545 107.0463
195.3422 182.2984 130.4059 8.5096 -88.1018 -74.0328
7.0710 48.3853 9.7962 -29.1582 -118.1548 -242.9877
-245.0139 -140.9583 -37.5645 66.3669 103.8020 16.7964
-24.2686 -7.8934 -35.3575 -4.8373 75.9968 97.2356
24.0200 -64.2324 -58.6717 12.4667 86.1254 114.8436
85.6656 -42.4939 -185.1137 -160.5731 -65.1111 -4.4118
65.6430 146.7366 190.2181 156.9384 33.7500 -75.4316
-72.0566 -111.2390 -153.0687 -90.1003 -100.4606 -171.8965
-139.7051 -35.8107 35.0320 79.9799 60.1824 -23.5919
-41.4771 0.9125 6.5130 26.5987 108.3255 69.2126
-33.5351 32.4366 87.2183 16.3672 36.3408 53.5521
-123.9194 -235.6778 -128.9387 0.1385 132.0346 242.3386
130.5246 -86.0477 -202.1507 -229.6129 -102.2672 163.5549
326.4893 269.6285 114.0224 -44.6360 -152.9899 -195.5416
-183.6296 -53.3047 96.0761 85.7139 4.7565 -7.4558
-12.2638 -17.9673 76.5975 186.8432 149.0512 38.6711
36.8543 79.5702 28.9791 4.6379 33.7445 -44.5934
-161.7104 -163.9471 -97.1060 -75.8282 -21.7130 86.4388
59.4048 -10.2070 -4.3098 -30.8794 -58.7884 -24.5837
12.4352 50.1438 164.9630 218.0382 71.1184 -70.1322
-68.8781 -40.0876 -42.5968 12.0719 96.0260 21.9011
-91.5898 -51.2404 15.9900 38.4895 59.5457 21.2578
-95.4217 -178.0865 -156.5335 -72.0259 43.7887 162.0904
157.2676 69.6780 3.9520 -87.4297 -119.2791 -33.0206
66.1084 75.7494 -18.0479 -92.8198 -73.8854 -27.1540
20.6812 113.3245 142.1280 -5.4156 -142.3097 -146.3965
-85.7751 16.8512 89.6701 86.7530 45.4971 33.2468
50.7667 37.7276 3.9279 -34.4249 -54.3604 -91.4238
-143.5045 -93.3417 45.7585 140.2380 180.4196 209.9980
141.0565 -21.3820 -145.9349 -167.7901 -119.4070 -12.3824
129.8369 142.5970 36.1750 -22.9865 4.4108 35.7606
16.2088 5.2432 -4.8826 -66.8527 -131.6332 -117.8099
-39.6370 50.7927 116.1989 118.9927 24.5716 -109.9736
-152.6802 -80.1217 31.7433 90.3662 98.8931 68.9782
-2.6811 -71.4651 -98.6354 -72.3772 -36.8525 -26.4486
-19.7534 27.7306 18.9266 -91.3089 -172.7344 -152.2603
-8.1408 149.3646 228.8797 210.7887 44.1698 -170.6228
-299.9522 -257.3031 -79.4571 112.9779 257.5933 271.4129
152.2900 -11.6195 -64.5529 -8.7368 21.8047 72.2976
187.7591 215.6561 70.8256 -34.1356 -49.7359 -64.2851
-61.9733 -73.0742 -68.4424 -18.4510 30.9564 12.6643
-66.4272 -100.9239 -28.6519 -4.8557 -86.7252 -123.4873
-82.4261 68.0643 202.5140 203.1035 147.6146 77.2372
15.8724 -40.5111 -40.3637 13.5059 54.3679 59.7543
8.3392 -44.4496 -33.6073 -7.1674 22.9291 64.3871
56.3580 16.4221 7.8609 -0.4064 -84.3615 -176.5004
-183.8714 -103.9893 12.0497 133.3287 237.4334 230.3943
156.9210 52.0144 -38.0640 5.6076 85.9420 116.4159
145.8284 136.9530 -2.6338 -208.7234 -293.7352 -191.3721
-67.7490 44.0113 186.6273 193.1808 104.7514 33.2070
-38.7378 -72.2743 -80.1485 -115.0883 -186.8292 -228.7729
-165.3939 -59.2314 43.0204 209.2297 336.9740 245.5080
-3.5181 -248.9625 -376.6280 -299.1030 -92.0040 114.7715
307.4067 382.3279 276.1357 117.5421 -41.1794 -216.9314
-336.2054 -296.6967 -132.8187 56.7242 157.3140 101.9530
-61.0296 -222.7534 -123.1860 137.4350 215.3298 154.9606
102.1384 -20.4188 -253.6796 -272.2896 -46.5370 146.0537
250.6349 250.3392 158.2744 -27.4394 -141.7358 -10.2031
159.2337 176.7222 104.8617 57.6623 6.4363 -131.4719
-224.3830 -181.2333 -88.2202 -25.4029 33.2738 190.1089
305.3916 212.5342 68.5352 -7.5372 -94.8191 -193.5689
-365.6902 -495.9047 -360.7088 -176.8146 -32.5709 161.8449
323.9822 352.3250 213.5159 -11.4479 -237.7104 -441.0146
-529.7915 -300.6584 251.3533 710.5159 618.5299 246.9540
138.4649 26.9401 -265.4627 -393.6483 -291.3232 -99.9218
19.6182 133.3455 259.8060 186.6163 -64.8884 -261.8366
-260.8114 -91.4700 99.3103 137.7308 90.7260 32.5526
-62.0381 -146.2045 -186.8041 -137.5404 -17.1096 103.2294
151.3771 109.9274 18.9712 -65.9006 -56.7490 14.7537
50.4749 50.8169 55.4720 49.8446 -16.4561 -119.1955
-158.0683 -94.4371 -10.9539 5.4677 -3.9018 49.7009
119.8901 89.1206 -45.5980 -122.4036 -43.3223 55.4498
55.4841 8.9446 17.9646 100.6841 188.7928 265.9024
353.9425 345.7280 168.2028 -55.0870 -210.9554 -255.4175
-190.6583 -79.0241 24.0555 73.9829 38.6000 -23.7474
-40.7177 -41.7929 -43.9165 -31.3186 -38.1436 -57.1225
-33.5348 9.3821 5.4084 -72.8488 -148.5802 -193.9406
-220.7391 -199.9193 -194.9101 -118.3307 33.2683 226.4346
439.8831 435.0695 316.5714 205.2607 19.9038 -155.0604
-291.9730 -388.5177 -314.7421 -104.1514 245.0122 633.6084
693.1147 344.6945 -138.2588 -558.4420 -727.3894 -227.7078
76.1389 -172.4403 -39.0167 196.6791 248.8432 105.3262
-77.9442 -134.5418 -218.8417 -160.7415 21.2311 131.4286
110.8174 30.2150 -41.9208 -105.7512 -155.3495 -159.2464
-101.0415 13.2632 159.2394 269.8336 301.7970 246.6668
129.0918 65.1131 139.8100 175.5497 80.5298 1.9890
-34.8056 -75.8039 -94.7661 -21.9379 63.6708 26.0271
-63.0650 -119.8906 -164.2472 -216.2963 -223.8842 -181.8014
-143.4866 -53.7049 83.0103 131.5315 65.4635 -33.0713
-160.0973 -247.4208 -163.2025 67.3173 275.4740 317.5957
333.1561 370.8999 194.9616 -133.2422 -323.1800 -306.2950
-230.6016 -139.3173 11.5401 127.0294 116.5208 -15.9323
-175.3203 -283.5795 -346.0659 -348.5585 -227.7504 -25.9423
66.6231 46.6301 -2.2397 -39.4171 -14.0636 29.7358
93.4810 184.9878 238.1057 174.8499 40.3473 -52.2950
-121.6481 -163.5575 -150.8418 -93.4378 27.9459 188.3071
294.0748 297.3005 260.0944 216.0271 121.3390 -18.0170
-127.3469 -213.1521 -281.1686 -222.1396 -54.1998 121.0980
206.5761 146.8334 56.5557 5.7561 -11.3690 -11.8482
-24.3340 -36.7568 -14.4297 58.7340 87.2798 62.1887
82.5895 108.0255 82.4700 55.2506 21.0273 -84.7042
-216.4390 -250.4361 -154.7405 -79.5004 -60.0385 21.2664
105.6600 86.2417 -1.8225 -22.5756 45.3222 78.4675
17.9860 -61.9462 -84.5049 -92.3440 -136.1240 -178.7527
-173.3403 -120.1548 -37.6281 10.3555 60.6185 115.9786
91.2888 54.5980 15.4101 -15.4586 -20.5123 -68.3939
-180.9727 -286.3612 -216.9367 -44.0081 106.4071 239.5888
206.1655 67.3628 -37.3157 -133.1411 -195.7294 -222.4214
-97.9723 92.1963 134.8806 150.5013 193.3135 186.9121
88.8909 -68.7127 -129.9283 -56.4828 6.4272 4.9395
15.2229 29.5180 43.0874 0.5393 -71.2785 -13.6483
41.5413 31.1837 101.4758 172.3139 132.7153 63.8841
40.5977 38.3860 13.2735 14.7715 111.4487 238.3004
323.2074 289.7072 106.4841 -75.4830 -138.6739 -142.9934
-154.2501 -131.3864 -32.7718 94.4321 127.9806 -3.9489
-128.8141 -108.9499 -94.0680 -132.4820 -133.4386 -42.7864
50.8227 -16.5598 -134.9226 -142.2899 -110.8168 -84.7894
47.8686 193.7465 175.9577 77.6324 -7.0735 -122.6148
-238.7873 -226.6926 -95.1961 85.5716 159.4286 137.9877
160.8153 58.3225 -130.4640 -253.2604 -269.3158 -131.3381
47.3356 242.4985 381.7136 316.3009 112.7863 -38.5142
-83.1052 -111.1171 -88.2358 -12.4062 37.3942 35.3772
-44.5077 -165.3834 -273.1968 -353.8409 -350.4419 -228.2712
-51.2576 148.1173 366.7399 538.5340 516.6370 267.7964
50.6077 -42.3442 -139.5535 -160.3697 -33.1500 160.0729
242.6357 151.1270 73.7745 23.2252 -81.8946 -144.1771
-34.1353 155.0647 190.6913 193.0281 218.7996 70.7620
-105.8335 -165.5336 -176.7828 -189.1972 -180.1643 -58.2272
13.4377 -83.4073 -153.5752 -134.6825 -118.8495 -161.1853
-174.3811 -76.3997 59.9475 155.6755 162.6841 140.7556
109.5384 -14.1849 -86.2947 -29.1827 -6.2337 13.9568
95.5676 107.2155 -7.8345 -125.3121 -156.3430 -145.0465
-108.7682 -7.1059 108.0256 148.2814 93.9603 -9.5882
-85.4577 -144.0871 -157.0948 -98.6192 2.2357 108.7097
85.4354 7.5628 -4.1694 -45.4457 -85.9777 -76.8326
-17.4338 79.5234 61.0440 -36.0345 -23.2318 32.0246
6.2030 31.3887 126.6570 107.4528 12.5608 -20.6345
32.2489 27.1072 -128.3960 -218.7293 -111.4748 63.9899
193.7150 199.5167 124.9440 62.0044 -2.6640 -31.4916
-12.1808 12.2522 14.5695 59.0428 130.2665 113.8097
10.1128 -140.2097 -248.7906 -283.6109 -195.7247 -10.4280
131.0358 186.5341 110.2021 -7.0215 -84.9756 -140.6528
-107.0478 19.6500 189.0192 276.9573 218.5198 88.8159
-57.0045 -141.4184 -147.1265 -125.7672 -72.0866 35.1317
144.5691 142.1776 24.2578 -79.7709 -118.6465 -116.9576
-66.4787 50.1304 184.1037 235.4437 245.4583 229.7802
87.1604 -122.4302 -235.0071 -179.6108 -63.2752 49.3147
131.2722 131.8673 185.5293 202.9334 40.0824 -68.9564
-27.2370 49.8393 48.7020 4.2389 -7.9688 -96.4687
-142.2860 -89.9078 -74.6607 -94.6565 -143.2222 -119.1294
-34.3132 39.3465 91.3835 75.9121 20.4398 54.1440
82.7872 50.5568 113.7004 159.9256 191.5498 181.1171
96.8413 27.6801 -28.8813 -23.8527 19.9541 83.8949
117.6621 114.0461 49.7532 -68.1842 -172.2352 -202.5487
-61.8310 103.1074 179.7156 214.2828 194.5957 85.1879
-86.9027 -217.3796 -253.3687 -213.8786 -152.6899 -84.8115
-24.2717 -5.3966 -10.5549 -10.7301 -34.4216 -95.9495
-133.3939 -116.2661 -73.9608 -17.2353 48.8364 101.6151
141.9320 122.0484 25.3637 -53.5387 -70.5395 -46.8101
-57.6329 -83.9495 -76.7676 -86.0462 -109.5208 -140.8668
-102.3880 -33.9322 -7.8900 36.8382 82.8558 127.3866
87.9373 -30.9382 -95.6872 -81.5904 -1.9233 93.3691
120.2520 86.9482 50.3622 -27.0747 -131.9414 -203.8927
-183.2277 -78.1088 16.8276 89.1840 116.0020 63.8324
-80.4160 -221.7324 -206.9729 -115.2353 -96.4955 -95.0383
-3.3545 97.1204 100.2108 28.3791 -43.0782 -99.7268
-139.0992 -105.5535 -42.3858 -9.0088 -18.2864 -62.1572
-109.4744 -113.9561 -59.9447 -27.8774 -25.4507 7.0476
63.9214 29.1354 -52.8981 25.9607 144.7026 134.2153
104.1632 153.4251 159.2425 32.7032 -39.3083 -9.5760
-19.8835 -40.9935 8.3138 68.1565 59.2747 76.2403
185.5952 177.3780 2.2155 -61.3165 -15.7031 -24.8815
-50.4742 -66.3525 -25.8632 26.7922 -5.9925 -42.8594
-19.2912 61.4539 71.7633 -51.5105 -119.1775 -62.6170
7.4888 5.1520 87.5063 271.4088 209.7252 -14.9328
-109.2593 -107.2404 -121.3650 -126.5744 -40.3085 52.1438
115.1836 125.6496 13.2516 -72.5398 -53.8055 -0.2733
59.7827 121.9113 218.0759 273.3684 155.3819 -76.1743
-136.2525 12.5156 69.8019 12.7445 72.6967 208.0252
140.1450 -6.9676 1.6547 3.1962 -83.5267 -127.6098
-2.0919 198.1042 263.9850 203.8549 81.6231 -51.5308
-170.4776 -282.1489 -278.9408 -136.6520 2.7012 -11.7941
-135.3700 -153.8661 -59.1864 24.3155 111.7030 234.1332
268.7791 127.5943 -61.0958 -169.8686 -213.2732 -193.8762
-76.1641 78.2083 149.1872 140.4926 100.6067 43.0284
21.7933 -12.8258 -82.9168 -88.9770 -21.6437 29.3904
-24.6238 -91.9803 -39.7551 55.5652 60.9497 7.9060
6.4748 45.3680 45.0649 48.9005 135.0617 179.9957
79.8758 -78.5972 -185.8999 -276.6689 -378.3330 -338.8735
-113.6205 143.2882 197.2811 96.4781 80.0742 39.9065
-85.8653 -121.5096 -97.2684 -55.2756 46.4441 124.8367
104.4915 -23.6051 -91.9645 -57.8210 -95.4934 -195.1562
-219.5262 -129.1994 -53.5126 7.4240 116.3887 180.2654
177.4355 142.7710 80.3541 15.1509 -49.8642 -75.3020
-46.8776 -34.5290 -39.7115 -22.1998 -13.8769 -26.5481
6.7288 94.1886 203.1570 242.3486 178.7286 143.7517
133.3386 70.2515 40.0743 78.1490 43.9989 -84.5463
-143.6484 -69.5281 -21.0921 -73.8856 -50.2516 116.6862
312.4266 361.4957 219.1596 89.6142 36.6882 -33.2257
-138.5976 -225.7329 -245.7927 -186.4505 -33.1450 134.5983
234.0035 218.1214 71.7328 -52.4364 -73.8485 -66.6027
-39.2498 26.7163 87.4267 58.7372 -48.3764 -124.9883
-118.0456 -83.6175 -87.5310 -33.8551 104.3756 191.5574
106.0951 -93.1185 -138.6346 -79.3007 -146.9075 -224.9626
-157.5635 16.1771 180.3304 175.3611 80.3987 25.8885
-93.9407 -243.7340 -311.3361 -227.9047 -30.8472 112.4604
206.9232 296.6132 323.9151 256.8339 162.9319 125.8564
132.4673 143.2216 107.7849 12.8985 -94.3170 -199.9299
-264.8439 -187.4005 21.1974 175.3565 190.3533 160.2132
104.1421 -1.9343 -84.4563 -78.0985 -11.3741 45.4709
-3.1606 -136.8076 -219.3575 -251.8177 -220.5801 -154.0764
-121.6736 -40.0293 77.6707 162.0170 119.0166 -59.2882
-214.4614 -286.6315 -285.6656 -194.0818 -26.5869 92.7445
141.7060 190.7658 187.9767 133.3637 49.9555 -42.3772
-45.6085 27.6155 69.6315 21.1390 -100.9946 -145.3094
-60.8213 20.7803 102.0204 203.8152 218.4199 92.3626
-82.0351 -169.7943 -135.8806 -45.4852 32.9055 76.9811
82.5817 70.7568 91.9492 98.0105 12.2729 -59.6033
-91.6539 -152.9835 -156.1508 -57.0209 54.5503 66.5847
8.6059 12.4833 21.5608 -19.5830 -22.9339 12.2210
23.2923 -27.5602 -88.1927 -118.0557 -144.5669 -137.7781
-68.6687 58.5954 161.5165 169.8830 135.9406 59.1442
-38.6676 -86.1331 -96.8530 -97.8912 -141.3430 -213.2016
-216.0547 -172.1070 -130.2810 -12.1277 144.2107 180.4408
159.1667 138.0336 57.8669 -43.2281 -118.9493 -70.7627
67.2178 96.4486 58.0523 55.0926 18.9320 -69.4946
-131.2126 -134.8304 -90.5860 -25.6201 42.4186 110.7716
118.7321 0.6065 -168.3742 -239.5432 -175.7230 -82.6348
-24.8609 61.2409 106.0109 59.6642 19.3593 -21.5425
-50.2237 -31.8574 -1.9889 -18.3993 -78.1382 -79.8790
3.7535 104.8170 153.8211 168.3990 218.2170 248.3173
160.1817 9.4226 -67.6036 -63.1618 -69.3250 -88.4012
-45.7660 46.1588 82.0719 52.4054 40.6603 36.1952
-22.8717 -91.7669 -89.5988 -57.3601 -20.2151 47.1377
95.4040 99.3833 75.2506 35.0894 -10.3099 -17.5196
17.7474 37.1305 51.2597 82.0673 141.2436 158.9063
52.1932 -73.8660 -115.6827 -105.6042 -127.6550 -196.3231
-213.9867 -118.1307 57.1022 225.7938 298.7193 264.8084
163.9692 55.7989 -23.9859 -94.6256 -159.3004 -179.7514
-133.2416 -80.9088 -38.6750 23.8244 98.8494 205.0388
282.6324 223.2002 57.7520 -63.4176 -86.3008 -92.0394
-113.1234 -89.4394 14.1324 71.9489 11.7150 -75.2054
-130.1595 -121.8282 -72.2373 -25.0602 11.8568 37.6505
70.8069 94.4604 99.8366 95.6042 53.0330 3.4143
-6.8033 -15.0178 -37.6405 -22.8012 12.2146 -1.9675
-39.2209 -60.5376 -45.2793 -9.0928 3.0463 35.3406
75.3693 76.4279 72.0120 73.5979 56.1308 31.1370
58.5455 98.0439 70.6559 1.5725 -84.4645 -167.3091
-203.5105 -203.6486 -185.7412 -127.5511 -22.2756 100.9035
182.9927 198.4614 144.8689 26.3791 -103.4499 -190.8912
-186.8998 -80.3647 67.0964 167.2089 179.4027 139.9802
57.1291 -45.2515 -89.2892 -66.2067 -24.8349 6.9394
27.5591 14.9463 -53.1295 -130.9882 -122.4261 -47.4938
-15.7815 -4.1105 24.7264 14.7424 -60.3559 -159.0538
-201.1987 -148.2745 -36.6959 69.5334 122.0330 112.3540
45.2014 -58.1099 -137.2320 -147.0760 -100.1046 -10.9883
105.7162 161.8346 124.9575 85.9355 42.1258 -50.9493
-116.8821 -115.5603 -83.2483 -42.9332 -2.3605 52.1098
67.4895 7.0118 -17.8671 21.4497 50.3468 58.8106
44.3468 6.2665 -49.4403 -99.3630 -92.9357 -49.2113
-6.6911 65.5986 102.2690 42.3075 -1.6699 -2.2297
-2.9194 -15.3579 -50.3505 -51.3359 -12.7171 -12.7328
-52.4593 -75.3962 -71.5087 -48.7868 -22.8549 -4.6027
6.0302 -22.3303 -60.8786 -49.3661 -7.1341 26.6896
58.5502 94.7247 89.4143 59.2435 25.9008 -1.1276
50.2106 122.0618 142.5970 123.9138 45.5527 -4.1902
38.2689 96.7055 124.9825 114.4999 106.9648 97.2960
71.4299 84.4709 114.6352 124.7999 111.2074 79.1207
48.7303 22.3924 6.2471 -14.1343 -54.8053 -106.3419
-150.7484 -168.4019 -168.1433 -147.8064 -94.9647 31.7118
173.5918 219.9125 190.4741 79.6518 -61.3513 -148.7453
-168.5298 -110.0663 -18.0951 45.5704 64.9359 46.2480
-10.7185 -78.7777 -127.1997 -138.4731 -101.2808 -27.4571
55.6878 112.7637 99.8710 48.7210 41.1971 61.6221
71.2863 47.6171 -5.7520 -50.5034 -72.4346 -68.2236
-61.9751 -72.4782 -83.1908 -66.4939 -30.4863 2.0982
38.3236 46.5706 30.7321 26.0288 -4.9604 -64.6132
-106.6134 -123.5383 -123.8321 -101.3308 -61.3958 -27.4617
-19.2936 -16.5202 13.3076 34.9450 26.1799 4.8530
-47.8468 -106.5467 -126.5323 -113.3828 -58.9978 24.7895
96.2245 107.1280 53.7024 -1.2035 -20.8239 1.1546
41.0266 67.2375 54.9213 0.5938 -38.3532 -31.0971
-4.4033 22.9662 64.5039 110.6374 112.1196 63.7429
9.0317 -23.9959 -34.5778 -24.4733 -15.1224 -31.2473
-38.7388 -19.3557 -0.6270 8.8657 -6.5417 -48.9183
-78.2057 -75.8819 -46.6724 -23.5046 -39.2245 -34.5212
36.8508 138.2776 201.0541 183.3979 112.9149 21.2959
-55.1362 -90.4338 -82.3797 -19.2268 83.5904 169.4189
168.3334 89.2067 7.4012 -50.3717 -88.3751 -98.5945
-79.0232 -54.6848 -54.8803 -73.6878 -72.8842 -43.8174
-17.5898 -7.7449 -0.0754 15.4451 6.0488 -44.6535
-86.0874 -77.2982 -36.9516 -19.7727 -24.8023 -9.7934
2.8342 -7.0052 -13.2332 -2.5568 14.4561 22.5733
12.6523 -5.5453 -24.4593 -48.3955 -44.4190 -14.0443
8.5534 38.6009 87.2556 131.4295 130.6861 81.6263
20.0400 -26.7080 -63.8141 -99.5492 -105.5400 -95.3317
-83.3232 -47.9348 5.2192 43.2615 39.8439 27.6927
11.2489 -19.1192 -24.2137 7.5468 46.5882 60.4783
67.5888 71.0611 55.4850 44.9309 33.1283 6.3436
-19.0849 -20.7265 -17.5583 -32.4606 -32.8879 -16.4061
3.1336 25.2067 34.1219 12.9174 -22.4321 -40.2774
-42.2332 -21.2122 6.4187 10.0968 -8.1267 -56.3754
-140.0747 -206.1891 -185.9894 -105.2517 -12.4787 102.9143
229.4805 284.5801 245.1122 181.9223 102.5824 -3.0638
-90.4699 -120.5581 -84.1194 -21.2753 7.6089 3.9911
5.7328 -5.6119 -32.7720 -29.6297 16.6984 83.6406
123.8824 118.7778 86.6781 48.2178 2.2967 -51.4497
-78.3826 -82.6920 -70.7707 -32.3187 2.8843 4.8568
-22.0261 -44.2632 -39.6396 -7.4510 30.9741 50.0902
51.4408 32.2598 -13.7013 -71.3305 -117.2702 -137.9103
-134.4500 -114.0649 -78.5235 -15.2576 70.8174 137.8662
149.4917 99.7358 37.4951 5.2545 -4.1529 12.8239
51.7791 90.9689 109.0432 79.0180 11.3157 -46.8280
-86.1605 -104.2524 -69.9587 16.2860 97.4102 115.2110
81.5569 33.7290 -18.3646 -60.2212 -86.1438 -98.6556
-81.9300 -47.5250 -25.3787 -22.7500 -17.3218 6.4466
21.8744 15.5500 -6.8679 -13.2962 18.8693 51.9089
65.6071 67.0142 62.5445 39.1274 -6.7205 -26.9731
-18.6251 -17.3348 3.0420 57.1211 94.9696 84.5824
47.4921 9.2098 -29.3636 -60.8663 -63.2143 -25.8088
19.4839 46.3279 71.5933 97.2072 104.9888 77.8788
17.9257 -43.5197 -83.5122 -103.7036 -100.6855 -68.6656
-27.0991 8.0650 47.1964 87.0137 109.4937 108.6530
76.6108 11.3482 -62.2771 -110.2885 -111.2785 -68.3161
-3.8164 53.4606 58.7414 -0.0929 -71.5131 -114.4514
-137.6460 -142.3530 -111.0088 -64.5722 -26.9193 -3.6709
-2.6114 -19.1219 -35.7956 -43.2222 -42.4713 -33.8314
-6.3024 47.9917 72.6018 47.3911 23.1583 14.8335
21.7456 24.8045 24.0037 37.1448 39.6104 21.5315
-4.5570 -16.8537 -10.3355 -6.3080 -5.3199 -19.3944
-48.0913 -63.2939 -65.8680 -62.9130 -38.8887 17.8219
84.1570 110.9416 72.5573 9.5009 -19.9849 -19.6447
-17.1531 -1.7706 50.6780 103.2870 61.1672 -62.4634
-157.3758 -175.4380 -144.8770 -110.2218 -67.4373 8.6537
70.0268 42.7194 -23.4544 -49.6504 -46.3672 -27.7173
9.2117 39.8005 38.2543 19.4052 2.3116 -6.9327
7.9928 45.1211 63.8034 68.2388 84.7437 75.3057
45.0970 30.9668 16.3139 13.4079 32.8197 49.1866
51.3760 37.6648 31.0558 40.3668 50.9570 54.3376
37.2357 21.2359 50.9320 108.1933 129.5990 106.6462
76.1455 64.9519 75.5291 88.2642 88.6712 78.0281
67.1978 55.6501 22.1415 -41.2700 -100.1080 -102.5152
-56.5690 -13.3526 12.6803 19.7899 -7.2061 -66.0181
-100.0357 -86.7592 -76.9346 -87.0753 -87.3348 -56.1890
-29.7028 -38.0303 -55.3473 -67.0628 -70.6695 -46.4024
-3.5243 15.3480 6.5811 -0.6184 -3.4483 -19.8421
-39.3039 -48.6409 -54.6595 -47.4211 -20.4288 10.1609
24.6109 20.7400 16.0414 8.5759 -15.8080 -39.8202
-34.0881 0.6951 41.1270 86.0693 127.5838 110.5199
42.5563 0.1853 -19.1561 -39.1482 -28.6553 10.6624
47.5265 53.4227 22.4928 -14.6558 -48.3267 -58.5823
-25.6317 -7.6519 -32.1971 -49.2666 -54.1552 -83.1015
-121.7740 -126.6006 -112.3851 -105.3080 -76.1078 -21.9369
11.2417 5.7432 -9.1740 -17.5432 -39.1621 -58.9289
-28.8880 29.9741 55.0699 60.6287 69.7664 58.5441
22.2287 -18.5591 -28.5543 -8.7262 16.1063 43.4610
69.4503 77.0391 68.6272 47.5747 -11.9927 -87.0928
-117.6584 -93.0892 -51.0611 -10.4781 22.9415 32.2275
24.8176 22.4780 21.1618 6.0871 -3.7718 6.1548
19.9216 30.8714 60.5268 90.3787 71.9966 9.9237
-45.3920 -62.1593 -59.0438 -15.4975 53.8371 90.1219
108.4696 120.3279 123.2023 104.3633 71.9512 52.2836
36.4469 41.0658 60.3859 64.3272 49.3155 11.4207
-25.4824 -23.0501 20.4907 65.3459 92.6673 109.5838
88.3978 28.7988 -32.4075 -89.6780 -129.8819 -131.4187
-104.9418 -68.5792 -35.1086 -22.4819 -48.5463 -83.8050
-86.3364 -70.4164 -39.3548 9.5437 48.6556 58.4839
25.6417 -24.9651 -65.0744 -104.3180 -119.3287 -87.1864
-28.9556 9.9330 7.7639 2.1236 9.0561 2.8039
-23.9872 -50.4048 -53.1541 -38.6865 -28.2622 -9.6383
9.6549 -0.4088 -14.8235 -22.1686 -28.1158 -35.2847
-48.9421 -40.1761 -12.6443 5.6357 5.3641 -14.1487
-46.3837 -68.8989 -59.3747 -45.7970 -34.0231 3.1191
42.7455 50.3250 36.7992 44.6615 66.1589 52.8259
29.1956 42.1059 64.2105 66.5871 60.0587 60.3387
72.8384 71.5620 33.9971 -13.5647 -48.4323 -74.3261
-60.5491 6.7685 71.5611 88.1281 77.1792 63.3373
40.6404 22.6932 18.7815 17.1445 13.6407 31.1524
79.5948 112.7540 103.9954 68.7552 31.2265 9.9061
-15.6550 -34.3966 -18.6935 3.2026 17.9297 21.0701
18.7018 21.1387 9.9942 -7.4590 -14.2701 -21.8645
-29.1316 -14.0198 11.0407 19.9087 19.2867 22.5755
30.2912 31.8698 24.8010 33.4873 55.7430 62.0952
55.0033 36.3840 0.1168 -39.4623 -60.5185 -51.9129
-23.7712 7.6630 32.2749 39.6857 27.7394 11.9677
-0.4977 -28.1537 -63.4402 -69.3086 -54.6955 -45.5532
-35.7620 -26.8310 -35.3671 -52.2020 -47.6221 -26.7271
-19.3256 -29.3652 -40.0527 -37.9977 -34.4429 -55.6882
-87.4894 -85.6513 -45.3437 -6.6247 3.1016 6.9409
28.3540 51.4170 58.3792 49.4204 27.0859 -16.9526
-60.7882 -75.9232 -63.9694 -22.2176 28.4754 65.2478
76.3283 61.0979 33.8025 0.8250 -21.3945 -26.6465
2.1821 53.9346 71.7345 39.2427 -15.8264 -50.6577
-84.6169 -131.1702 -130.6419 -76.3078 -23.1964 -7.5322
2.9347 26.5660 22.8629 -17.7433 -61.4463 -61.3406
-24.0733 15.2907 35.2133 4.9462 -49.0402 -71.2190
-36.1271 27.2612 44.1054 16.4615 -11.5838 -36.4766
-63.9842 -89.4489 -87.5793 -59.8891 -33.7542 -9.9626
27.1481 61.2954 41.7324 -7.9715 -18.7462 1.0280
29.3319 64.5035 72.2888 38.7338 -8.7520 -51.4734
-74.8664 -66.5194 -41.3940 -26.5028 -26.3415 -42.5990
-69.5569 -88.5822 -72.7845 -13.6981 38.3047 71.3044
102.2389 105.0837 72.8431 53.5638 86.8824 129.3545
131.5606 104.8742 80.8972 55.4863 11.3439 -16.0989
-17.5217 -9.6409 34.0306 87.7482 93.8761 57.6980
14.6113 7.5342 27.9165 43.3722 75.9113 111.4341
98.9437 55.9627 18.2292 -8.4035 -29.1315 -58.3902
-40.4012 48.4843 122.4767 123.1348 51.0185 -13.5952
-25.1290 -17.9509 -0.8008 12.9104 24.3256 33.9323
30.9115 18.8910 -0.0258 -27.5010 -60.8827 -67.1311
-57.8831 -58.8842 -52.9602 -26.7678 20.3102 39.9787
9.6810 -12.9167 16.1927 68.3355 90.8377 86.1057
76.2320 42.4639 -18.1399 -78.0013 -118.0651 -111.2448
-62.3713 -5.1425 34.6934 31.5483 -9.0764 -51.2898
-69.2621 -60.2635 -22.4956 21.7747 42.7660 37.1609
16.1408 -23.4346 -103.0164 -145.5088 -99.8509 -17.5217
62.3605 80.8741 40.1373 -2.2273 -28.6059 -55.6075
-69.7228 -43.2292 -9.8754 2.3546 -7.3096 -23.2306
-15.9440 0.6889 -8.8094 -35.1528 -44.7985 -30.6924
-30.0788 -40.1045 -35.1788 -53.1168 -76.3615 -59.8862
-31.9818 -45.3194 -81.6394 -48.4617 24.4582 29.1661
-25.0474 -67.1932 -61.3989 -36.7527 -19.3440 15.7135
68.2558 100.1052 63.7824 -23.2983 -49.4378 -22.3380
-53.2651 -89.6704 -32.2580 61.2584 70.1885 4.8684
-20.1467 -34.9007 -112.9855 -175.4942 -151.0602 -59.2466
48.3972 113.4605 111.9727 67.6338 8.5919 -33.6456
-41.8406 -26.8966 26.1202 131.2261 225.0613 201.5052
72.8386 -50.2442 -107.9467 -128.5858 -146.2364 -112.0929
-36.6683 -30.8129 -111.3532 -136.4712 -56.7207 4.9723
18.0884 41.8512 106.2573 143.9631 73.2538 -45.4668
-129.4219 -154.9542 -118.3877 -39.7949 24.6844 23.4284
6.3645 29.1930 26.1221 -17.7431 -20.6101 21.5088
37.6040 17.1021 4.7582 -10.1840 -45.4918 -42.9687
-7.6405 -12.7720 -15.2117 32.7719 82.5232 73.7442
18.5583 13.7142 70.0105 112.5113 103.8519 48.4315
-1.9806 -21.3748 -7.4644 31.7134 25.6151 -10.9255
-19.5581 -17.1693 -11.5049 18.6269 54.3296 9.7395
-72.4349 -71.7972 -22.7930 -27.9607 -75.2333 -55.4498
29.0753 78.4169 66.8414 55.1008 59.6827 49.1008
29.2014 29.8438 73.6562 94.7689 44.8378 -14.3431
-16.7698 19.2322 8.6995 -47.7943 -72.7009 -35.9342
5.8826 -0.1508 -22.8746 -10.4036 15.0972 -14.6824
-41.6635 1.5723 45.9594 62.1743 73.4699 95.1805
104.6510 67.4179 31.5410 33.4097 60.7978 63.9735
30.8588 11.7306 -8.9066 -20.4748 24.3832 103.0520
126.1271 68.6925 26.7831 12.4360 -19.9492 -44.7261
-26.3738 53.8050 148.6636 162.3192 102.7971 50.7786
33.0232 9.6598 -55.0707 -101.8122 -84.8780 -34.7699
25.5401 92.6806 130.5671 74.1225 5.7241 24.8180
29.7817 -49.1457 -129.3912 -120.6113 -56.9319 -34.7356
-18.5968 24.9542 23.5323 -14.6035 -16.3944 13.3611
8.0516 -28.5891 -28.2480 13.3472 35.2617 17.1096
25.6022 44.5209 -3.2366 -74.0691 -92.5438 -52.9341
-22.9422 -26.4368 -30.5384 -29.7858 -27.3832 -20.7778
-11.2573 -10.5195 12.7225 34.7102 -5.4362 -50.2450
-45.1960 -39.5176 -56.1524 -46.5354 -15.0383 12.1533
25.9062 12.8606 5.0373 30.5622 49.8702 21.0472
-31.1863 -60.8000 -71.7990 -85.8179 -69.7829 -29.6782
-33.6714 -89.5201 -165.2208 -216.2828 -192.2632 -115.2100
-44.6760 -7.4365 -15.1689 -39.7364 -69.6587 -111.5097
-137.7595 -121.9924 -67.3358 -35.2519 -19.7109 16.6073
21.7731 -16.6854 -27.3952 32.5301 109.1114 127.1737
78.9110 14.0276 -35.2129 -53.7312 -24.5652 21.8398
40.8512 23.7826 -18.2148 -61.4155 -78.1012 -70.1601
-44.6546 -14.2855 15.6970 39.3190 24.6753 -4.7650
-16.6010 -12.1527 -2.4950 9.3420 37.7812 85.1085
134.6874 129.9100 68.1336 13.6568 -6.7412 11.0253
32.2817 28.1532 28.8780 39.2513 33.8288 9.7248
-2.4569 2.6495 -10.8373 -40.4964 -47.1833 -15.1244
18.2303 30.6123 40.8225 33.2105 -8.7193 -56.9958
-80.9987 -78.5878 -54.9232 10.4747 86.6584 101.1426
80.2839 54.8813 -1.3214 -64.9229 -73.0392 -21.5212
11.6269 31.1157 83.6004 113.4347 85.9558 45.0094
23.4944 -6.9748 -66.6507 -115.6558 -117.1658 -81.7310
-24.0776 38.0167 64.2090 56.8102 40.8151 29.5510
14.9601 -6.5567 -2.4143 19.4057 42.7014 65.2184
74.5415 57.9263 23.1153 7.1647 -11.5742 -31.3791
-13.9416 21.9335 61.1742 72.9630 43.7025 9.2512
-16.1255 -28.8986 -25.8879 -18.1100 -12.3871 -18.2426
-38.3644 -59.2677 -87.8246 -105.1166 -72.8371 -2.5431
67.4950 109.9801 119.7091 82.4956 21.5998 -6.2379
-5.4815 2.2992 6.2118 6.7235 12.5872 1.5326
-40.5724 -81.1878 -81.5808 -57.7188 -39.4536 -22.2942
5.6797 31.6561 26.5923 12.6095 4.7287 -24.5985
-49.9705 -34.8031 4.0910 42.7116 60.6024 54.2445
38.7583 17.1301 4.4775 14.0537 33.2653 38.2308
35.1043 51.3191 65.9026 55.3040 34.0596 14.4652
12.9247 30.5753 43.1547 43.8814 42.7024 32.5673
10.4627 -3.8871 -15.6990 -25.9138 -22.7196 -14.3031
-5.3229 2.7988 11.6195 20.3281 21.6527 20.8453
35.7773 56.2134 50.9502 27.5600 13.2500 4.9364
-8.1927 -17.1747 -12.3101 -0.3397 6.2508 7.6560
1.6124 -16.5787 -37.4235 -44.4423 -35.2934 -25.3984
-18.0525 -14.2947 -19.7284 -29.5993 -35.3694 -32.3328
-33.7492 -45.7177 -43.3049 -23.6261 -19.0424 -33.4739
-47.3890 -65.2945 -90.2550 -108.8140 -110.2415 -93.9368
-81.7216 -78.9260 -64.4353 -38.5479 -16.5444 -5.0893
-0.2656 -5.3924 -28.9801 -59.5336 -71.4401 -54.1852
-21.2207 16.9550 51.8197 57.4963 32.9140 17.3341
19.7247 17.2479 14.0426 21.2078 31.0092 27.0113
-1.1526 -28.7613 -27.4043 -5.4388 27.3274 66.1992
85.6055 79.5536 71.0703 65.2186 57.5482 48.2362
50.5980 62.8261 62.2032 52.7040 43.0111 36.7228
32.1030 26.9668 42.7432 87.3417 137.4313 152.2557
114.3479 60.8110 24.1490 15.3255 30.9656 55.0251
69.0876 59.3149 37.7869 14.2382 1.6449 9.4840
35.7606 83.4078 122.2722 124.7193 100.6580 58.3111
5.4388 -36.5883 -43.8110 -15.5599 15.5758 24.2222
15.5062 -0.1163 -21.2439 -42.7932 -55.0111 -47.7884
-13.6847 28.4685 53.0544 56.2570 40.6271 18.8840
4.8827 2.7924 13.6830 37.1205 65.8832 87.7681
105.7960 108.9717 76.7088 25.1797 -19.9990 -54.9731
-72.1714 -57.5351 -24.4825 9.8288 44.5582 75.6688
87.8756 67.7584 34.5723 7.6700 -10.4395 -3.5098
28.1802 54.0861 47.0173 13.2890 -12.7735 -19.4224
-15.4941 -2.2278 0.1590 -22.0011 -54.2834 -75.8782
-70.5316 -53.7949 -38.1789 -25.8053 -16.7111 -12.7476
-29.2229 -63.6612 -98.9254 -111.8404 -102.5553 -81.3007
-56.8621 -33.1864 -6.0950 -1.5947 -21.9538 -47.0283
-80.0725 -114.3774 -130.7563 -120.7612 -90.3467 -65.8589
-66.3641 -71.3733 -67.2883 -62.6805 -64.0477 -71.1721
-74.6546 -76.2350 -71.0405 -40.8818 11.9580 56.5333
56.8049 29.0692 14.5395 6.9238 -13.8320 -42.7422
-69.1227 -81.3192 -70.0811 -46.4304 -27.4524 -16.8603
-10.2939 -4.1261 -3.7535 -12.4713 -18.2572 -9.8453
7.2297 22.7994 30.7367 27.5472 14.6758 -2.3473
-16.2041 -25.5114 -22.3960 -2.0414 15.2913 18.7756
10.7419 -5.7445 -12.5139 -1.6716 19.0027 37.8491
48.7322 48.7248 32.4321 16.4991 13.3781 24.3419
33.7104 30.6413 27.0661 13.7350 9.5369 24.6097
31.0899 27.6779 15.6194 -8.9545 -45.1438 -82.0710
-104.7447 -104.4017 -81.0856 -47.9172 -22.9688 -19.1415
-37.8516 -74.3616 -109.5971 -120.7278 -97.8334 -55.4893
-8.4400 47.7942 98.9090 118.7639 107.2477 89.9149
74.9496 53.4374 32.2811 30.7572 45.4064 56.5630
63.0154 64.9554 57.7430 50.2135 54.6711 58.5123
46.7505 27.7354 18.0916 15.2088 5.4732 -9.8332
-24.6984 -33.7610 -36.8097 -29.7762 -11.6713 7.0472
22.4472 33.0912 36.7007 29.5132 15.0142 -1.3406
-1.2656 37.3495 77.0288 87.3696 79.3767 58.9999
29.9934 -2.9952 -17.0735 -8.2444 17.1508 48.6146
59.0982 49.2124 27.6510 5.7588 2.4135 22.3657
50.7549 71.2549 74.2971 50.4175 14.5572 -9.3104
-17.7946 -16.1521 -8.6319 6.4169 23.3445 25.5951
18.6941 19.3791 23.0525 13.8342 -8.5308 -26.6746
-31.4789 -28.3959 -22.8584 -19.0321 -26.9175 -40.6351
-50.4541 -57.8242 -61.7442 -65.8922 -62.0983 -43.2556
-21.1056 -12.4360 -15.9305 -16.2225 -16.7425 -23.5768
-33.0936 -29.4823 -18.2488 -18.9616 -21.2177 -15.4995
-4.9306 -11.1513 -36.1210 -50.0222 -46.4433 -38.8480
-31.9590 -22.1660 -11.6638 -4.6025 7.3318 29.2445
37.5174 25.0093 12.0026 0.8683 -14.2185 -24.6631
-24.4296 -15.8730 5.0617 33.6808 53.3114 55.5017
44.1690 28.0293 13.0334 4.1626 7.9816 17.0405
10.9765 -11.3320 -28.7110 -31.1007 -19.4454 3.9105
28.1229 42.7332 35.8489 9.1180 -16.1891 -26.2955
-22.7620 -17.9494 -13.0653 -4.3021 -0.7362 -6.9726
-19.6345 -27.7702 -24.5046 -17.5647 -5.6239 14.5823
28.6466 28.4557 27.1079 27.5353 16.0654 -2.7717
-9.1694 -4.9259 -1.8633 12.6330 37.1003 59.7091
66.8576 49.8354 36.2651 31.3542 34.9377 52.3947
66.5564 66.9447 48.2587 18.5616 -4.4050 -10.2938
1.4032 22.2999 46.3298 66.2774 72.8901 68.4695
57.1953 36.9733 16.1562 10.9126 24.3031 42.9205
46.8692 31.9095 9.0958 -17.3181 -39.3883 -47.4045
-44.6079 -38.2223 -32.9591 -32.2092 -38.5587 -50.7442
-61.5921 -67.5532 -68.4152 -53.8865 -22.5237 4.8727
6.7395 -14.6541 -39.4727 -59.2451 -75.5656 -80.6063
-65.0792 -45.1511 -40.3431 -46.4868 -59.6817 -79.6033
-91.5839 -82.3127 -58.2440 -36.8402 -25.4398 -20.7542
-29.8734 -53.0022 -67.9063 -61.0850 -43.9581 -30.2135
-17.4552 -5.7629 -6.4155 -16.7990 -25.4936 -30.7521
-30.5704 -28.2725 -32.2685 -36.3239 -34.6452 -34.3745
-37.9525 -38.4354 -33.2344 -31.4473 -35.5675 -37.4084
-38.0035 -40.2643 -37.9173 -26.2249 -10.1464 3.0374
12.3846 15.7605 9.5973 -1.1338 -12.1652 -17.3597
-7.1969 10.1099 23.1667 32.5853 39.7801 41.6933
36.1808 28.1925 23.3317 24.9436 27.0515 24.4357
25.4043 32.1895 37.6482 34.9795 23.1611 12.9250
14.0290 24.9538 39.7115 48.9623 43.0865 22.2657
-1.9031 -21.9731 -32.6541 -26.4594 -10.4105 5.7190
16.1415 16.3556 9.0124 -0.6981 -7.5166 -8.3184
0.4559 17.1491 36.8167 58.2122 72.4100 74.4187
70.9093 62.8941 47.5858 30.5331 25.0651 34.7265
46.3484 46.6320 33.1489 13.3700 -2.5751 -10.3845
-13.8392 -17.0464 -16.8703 -12.0558 -8.6892 -5.6303
6.5728 23.1621 28.1267 22.6032 16.5475 13.0307
12.3735 15.2507 21.5177 30.5025 40.3891 40.7673
32.6103 26.2553 20.6779 15.2433 14.8818 22.4317
28.9369 28.1926 26.6826 26.2914 25.9902 25.6630
21.6744 11.7006 5.1703 10.0488 18.1585 22.6078
17.3456 2.6593 -5.8537 -0.4302 9.4064 11.2186
6.7962 -0.5683 -16.8434 -37.5066 -50.2491 -50.3056
-39.3938 -25.9792 -17.4644 -10.7145 -6.8631 -11.2744
-17.3124 -20.1219 -27.3205 -39.5273 -47.6509 -49.4102
-48.4203 -46.2401 -38.6365 -25.7382 -17.9112 -19.1848
-26.6837 -35.9539 -41.9540 -41.2745 -29.9641 -10.1194
9.9394 22.9517 26.2572 18.9900 6.8046 1.4311
3.2386 5.8721 5.1889 2.5481 1.6592 2.2060
3.0162 -4.2167 -25.5510 -50.8358 -63.6581 -61.0636
-54.6863 -49.3064 -40.4264 -31.5677 -33.8424 -45.3632
-56.4122 -65.1681 -68.3187 -60.4064 -44.0887 -28.0639
-16.1778 -5.7378 -1.9067 -9.1609 -15.5030 -10.8146
-3.2221 -0.1706 6.9390 15.8579 15.4315 7.8233
1.3867 2.3609 5.7043 6.4505 8.7984 11.3892
15.7458 25.6788 38.8385 52.3402 58.9371 55.8681
45.5773 30.7343 10.8775 -9.8672 -18.7788 -12.2485
3.1590 15.6976 21.8042 24.5192 22.3937 14.6409
8.1514 10.3390 12.6424 6.1910 -5.1306 -17.5311
-28.1463 -31.1468 -24.3746 -9.9163 6.0862 15.1822
15.9646 9.6735 3.1729 0.7591 0.8973 4.7765
12.4774 24.0975 23.3949 16.9332 8.5491 -14.5936
-22.5578 -18.8937 -11.3670 4.1304 8.8290 11.0073
4.4808 -5.6450 -8.9542 -19.9318 -23.3179 -13.3923
-5.5523 -0.8546 0.9427 -0.9631 -4.8098 -8.6381
-9.3945 -9.1785 -7.3969 0.3050 9.8524 13.4804
11.7211 8.3109 2.2710 -2.3572 -1.8752 3.1748
8.4388 8.2859 6.1975 3.8802 -1.4358 -5.5208
-4.1916 3.0839 10.5365 7.5193 -5.2325 -19.5638
-27.1443 -26.3202 -21.3102 -10.7663 -0.6080 1.2931
-2.2960 -7.8548 -14.0625 -20.6094 -22.4540 -16.3668
-11.4689 -11.8258 -11.8035 -13.8279 -20.8235 -28.7784
-34.8842 -36.2857 -31.2265 -21.8153 -11.3586 -4.5948
-4.3297 -9.1710 -18.6155 -27.2416 -26.2665 -17.1046
-6.3216 5.9222 16.1361 19.6306 19.3748 13.1254
0.9149 -10.8923 -17.8369 -16.2852 -8.5194 -1.0029
0.1632 -3.1904 -5.4957 -9.5575 -13.9948 -10.2657
0.9715 10.8804 19.4073 28.2159 33.2454 34.6405
32.2814 28.6126 29.7537 31.1339 26.1266 18.2208
12.7241 11.4069 9.5132 5.4764 -1.0974 -10.6828
-15.4389 -10.3612 -0.9927 5.4078 14.0422 26.0135
30.1458 24.7316 18.8650 16.5430 15.1276 14.0913
15.9155 19.4916 20.8755 19.5852 23.0371 30.6287
33.8572 33.6644 30.7502 25.4898 17.8899 6.6907
-5.1361 -12.2002 -14.6436 -18.7008 -24.6396 -27.8821
-28.0943 -26.0764 -23.9213 -17.0703 -4.5938 5.1956
10.9388 11.4190 8.1701 6.2606 9.3964 14.4881
19.3387 22.8397 21.1787 13.8828 4.4753 0.3329
2.2553 10.0490 14.7736 9.5132 -2.5656 -21.5937
-33.1665 -31.8836 -24.2605 -10.6902 4.9101 16.0676
14.7773 6.9521 1.6936 -2.6991 -6.5950 -4.7699
1.2431 2.6604 0.3273 -2.2978 -4.2202 -2.7974
2.7336 9.7042 17.2031 22.8240 18.7103 7.8077
1.0021 -2.3830 -7.0075 -9.8383 -10.6837 -13.7602
-17.2251 -15.4129 -9.4703 -5.4938 -0.1074 6.8993
6.3422 -0.0564 -4.3806 -4.0033 -0.9426 1.8957
2.9960 -0.8063 -8.9475 -13.9873 -14.1096 -12.9269
-9.2451 -2.5712 4.2742 10.0194 12.7084 12.4006
9.9174 5.1789 2.0431 2.1284 4.4179 5.3504
2.4760 1.2515 5.9483 14.9886 22.6321 24.2561
22.6618 23.7769 28.1817 33.0805 36.5973 35.1374
27.2093 18.3961 15.8980 18.7585 19.5223 15.0637
8.2888 2.0607 -1.6591 0.9799 9.5819 17.4376
21.1055 18.0327 7.1236 -2.3793 -4.3620 -1.4644
5.2188 14.5317 21.4123 19.3147 10.6516 2.1136
-4.5603 -8.1680 -10.3463 -10.1970 -5.1675 0.8103
5.9492 12.6426 20.8395 25.3555 22.8611 16.0667
6.6277 -4.9367 -12.6413 -14.1031 -12.4939 -8.2792
-3.0939 -0.5968 -5.1193 -13.9872 -25.6091 -35.2492
-32.7993 -21.2535 -9.5602 -0.1796 5.3801 2.9979
-3.0559 -13.6081 -28.2203 -36.9548 -37.2746 -31.3097
-21.5037 -12.9824 -15.1811 -28.4529 -42.2457 -50.1738
-51.9655 -48.1048 -38.0383 -26.0735 -20.7863 -21.3118
-21.8402 -19.2299 -12.1241 -3.5138 5.2049 11.9604
13.2340 10.8453 5.2374 -3.2969 -8.7510 -7.6461
-0.6153 11.3857 24.9569 33.6071 33.5978 27.0602
18.0235 11.3171 10.1066 11.3116 9.0054 3.6736
-1.0370 -5.9349 -9.5463 -9.8188 -7.2475 -0.2269
7.6242 11.1577 11.4228 9.2844 7.2924 9.9110
17.2875 26.7395 34.4070 38.6960 40.3746 36.5436
26.9721 20.1165 22.5534 30.1960 36.1126 38.0647
35.1708 25.3518 12.8568 3.5977 -3.6741 -7.0574
-3.1421 4.3429 6.4220 4.7573 5.9549 2.3120
-10.1923 -23.5568 -31.2430 -34.5985 -34.3074 -26.9012
-15.5083 -5.5391 3.1333 10.3763 11.5767 6.4285
1.7484 3.2955 13.8681 29.3015 38.3771 35.7317
23.2561 3.2955 -19.4199 -36.7100 -40.4140 -31.2819
-20.9410 -15.7632 -16.0116 -23.9508 -34.4399 -38.5870
-36.5654 -35.2714 -37.6119 -39.0848 -37.6249 -34.5725
-29.3047 -18.8508 -3.9679 5.8863 5.1809 0.1198
-0.7246 2.7153 5.7389 8.5744 12.3618 13.1099
8.7394 3.0768 -0.6263 -0.4196 2.7746 9.2696
19.4696 27.4301 30.2702 28.5702 22.3829 13.3194
5.5721 3.0480 4.7944 6.9662 5.8798 1.5640
-1.2696 -0.0980 0.6019 -1.9453 -4.6650 -7.8230
-13.3596 -17.8506 -18.0786 -15.4665 -12.4308 -8.3949
-2.3004 3.4707 7.6002 7.0329 1.0570 -4.6121
-9.4229 -14.0965 -15.0568 -10.5436 -6.3112 -4.8837
-1.1806 3.8832 8.7682 11.5341 10.2448 10.0686
10.3467 8.2064 6.8800 6.2534 3.6645 -0.9767
-3.4451 -4.4805 -10.7021 -17.5753 -20.5693 -25.8834
-33.7206 -38.6491 -39.1153 -35.8293 -29.6170 -19.2808
-6.1944 3.1973 3.9379 -2.2948 -7.4800 -9.1383
-11.1794 -9.7399 0.2395 13.2054 22.7055 29.1728
33.0983 28.4368 13.7514 1.9376 3.1148 12.5501
19.1860 16.7046 7.9868 -2.1474 -12.4864 -19.2641
-15.0651 -1.1389 13.9979 27.5061 34.8363 31.1647
22.4330 15.6433 8.6023 1.7096 2.9183 8.3057
9.3605 7.0052 4.4348 5.2264 11.3979 18.9932
20.6190 15.4634 8.3492 4.3671 7.3407 16.4655
27.0779 34.7631 36.8200 31.8321 22.8335 14.4262
8.3687 3.4356 -0.3445 -2.8592 -6.2333 -8.7193
-11.7522 -19.0611 -26.5470 -29.4631 -29.2490 -26.5396
-20.8593 -17.1192 -17.8162 -19.8814 -20.1020 -19.1668
-18.8405 -16.8392 -13.4207 -10.6723 -8.0500 -4.4878
-0.3871 3.3151 6.5195 8.9267 9.2808 5.8771
2.0554 2.2065 4.0316 3.0722 -2.1464 -10.7363
-20.7509 -31.1816 -40.8699 -41.7552 -30.5458 -16.7938
-7.5986 -3.3903 -3.6276 -9.0474 -14.4653 -12.7273
-4.6816 8.9935 25.2241 37.1203 41.0552 38.9075
31.3863 19.0794 11.6047 12.0283 15.4885 18.7226
21.1493 21.2670 14.8044 6.0699 0.0532 -6.4511
-16.6584 -27.3552 -34.8755 -40.9228 -44.6425 -43.3393
-38.7565 -33.2626 -27.8956 -22.9699 -18.6764 -14.1177
-10.0967 -7.5096 -1.7691 5.8271 12.6280 18.6392
18.1850 8.0814 -5.1404 -11.2628 -10.6797 -8.3642
-5.7697 -4.3636 -4.1337 -6.2740 -10.9494 -13.7061
-10.9874 -5.8346 -0.8116 3.4838 4.9252 3.6701
-1.2259 -8.0583 -11.9246 -11.4398 -6.1507 1.9961
9.8723 15.4014 16.1411 13.0646 8.7395 6.3666
6.4111 7.5818 11.4981 15.2485 19.0934 24.1220
24.3408 20.4310 18.2202 21.1985 29.1441 38.6869
47.0608 51.8670 51.5249 47.1897 39.8530 30.9211
25.3428 24.1758 23.6428 20.5172 15.3347 13.0980
13.8942 13.6189 11.8986 9.8343 7.3714 4.0799
1.2500 -1.2175 -6.1275 -12.0089 -14.3809 -13.4874
-11.7484 -9.0288 -2.5625 4.2477 6.0329 6.1025
7.5457 11.9152 11.6835 12.6763 20.4968 19.4280
15.5525 14.3781 11.8856 7.1721 5.0374 11.2330
15.1947 14.8842 14.4495 10.7297 3.8964 -3.0260
-8.0453 -9.9872 -13.5856 -18.7894 -18.3954 -14.3883
-10.8650 -8.0981 -5.8744 -5.4351 -7.7441 -8.2446
-4.0845 0.9200 3.2883 2.1908 -1.6003 -6.5057
-10.8734 -12.9145 -14.5728 -19.1731 -24.5901 -25.0063
-18.5808 -8.3141 3.0519 11.4212 13.8433 11.5111
6.1451 1.0720 1.6921 9.4422 18.6022 22.0188
17.4203 6.5743 -7.8849 -18.4751 -19.6014 -14.8147
-8.2566 -2.6663 2.5255 4.2523 0.2350 -3.0899
-5.1653 -8.2492 -13.0618 -17.0161 -18.0988 -17.4916
-12.4241 -5.1505 0.2137 2.4634 -0.6113 -7.4956
-12.9886 -14.5644 -14.3456 -11.8772 -6.1664 -2.5736
-4.9558 -10.6972 -15.4997 -16.5276 -13.5670 -8.7117
-3.6507 0.1451 1.3316 0.2304 -2.0072 -3.9918
-7.0803 -12.1395 -18.5724 -24.8376 -27.5248 -29.4528
-30.3130 -28.3275 -26.2864 -22.6129 -18.4714 -15.5784
-13.8923 -12.7837 -11.0633 -9.5246 -6.1867 -2.4623
-3.1140 -6.8514 -9.8361 -11.9578 -15.4005 -18.2156
-17.5092 -13.7700 -9.1668 -5.4591 -3.8379 -6.0255
-7.5781 -4.7685 0.1257 6.6967 13.8665 17.4806
15.5387 11.7216 7.4633 3.6202 2.8592 3.9771
6.6772 8.8722 8.4968 4.6417 -0.7206 -3.2224
-4.6684 -4.8204 -1.8042 4.1977 8.8908 9.9975
8.5237 5.8977 5.0727 4.0577 4.5638 8.1956
12.5234 15.1031 14.8482 12.8108 9.7584 7.1926
5.3610 5.8393 9.0113 11.6280 11.0922 6.6819
2.3290 0.0015 -2.0035 -1.0376 3.8455 9.3589
11.9867 13.3929 17.9006 21.3284 19.6877 16.9125
16.1311 16.0662 16.8281 18.7070 19.7656 20.6211
19.8425 16.9431 13.9843 11.5613 11.5103 13.3679
16.6668 19.1353 17.3991 12.9647 8.7193 6.6291
5.8625 5.6567 6.7876 9.6926 12.7821 11.6466
7.1936 4.8559 3.6184 1.2204 2.4662 7.8545
11.1479 9.5582 3.7908 -3.1148 -7.8042 -6.4286
3.1457 15.3636 21.9967 21.8707 18.9916 13.0945
4.8318 -1.0181 -2.1258 -1.0107 -2.3547 -6.9375
-12.4444 -16.1466 -19.1647 -24.2989 -29.5760 -33.2003
-36.2795 -37.6616 -34.1198 -25.7857 -16.8992 -10.5275
-8.2760 -12.0968 -18.6076 -22.6508 -22.6536 -19.9609
-16.3774 -13.2981 -13.6049 -18.4472 -25.2676 -29.0810
-27.6071 -20.2084 -9.1630 0.2083 6.1731 6.2797
-0.1078 -8.8933 -16.0696 -16.8705 -11.1624 -5.4349
-3.0573 -3.1092 -4.8166 -9.2084 -15.0342 -17.5462
-16.1011 -13.8320 -11.5397 -7.1507 -2.8033 -2.4928
-4.3142 -4.0658 -3.5523 -4.6109 -0.8929 8.6054
17.8515 22.9191 23.4418 18.9277 9.6825 2.8435
2.1836 4.6789 7.6386 10.0718 12.0202 11.0590
6.7116 1.5208 -2.0173 -3.0425 -3.4170 -2.6643
-1.9088 -2.6420 -3.3919 -3.6969 -3.5486 -3.9231
-5.0780 -5.3876 -3.6922 1.1297 6.9693 8.4487
5.9432 3.4692 1.9676 -1.0217 -5.7982 -8.1786
-6.5379 -1.3990 4.7679 8.1299 8.8084 6.8655
2.6118 -0.2598 -1.6567 -2.5308 -2.6698 -3.3400
-3.9082 -4.9973 -6.6167 -6.0902 -1.5306 6.4670
13.4088 15.9986 14.4645 10.9097 8.6026 10.0134
15.7771 23.2139 27.5361 27.5324 25.3745 22.1553
18.2594 15.0485 13.4635 12.4828 13.0009 17.6031
22.9006 24.4912 25.0955 24.3392 20.0521 16.6642
16.6512 17.2676 15.6436 14.0882 14.1197 13.0603
12.3465 15.2849 19.4997 17.9971 12.1333 8.5081
5.6828 3.4498 4.9403 7.6674 7.1761 3.3256
-2.5345 -10.7091 -17.3988 -20.0164 -22.1827 -22.6730
-19.3129 -16.5664 -17.4627 -19.1367 -19.1914 -18.7474
-18.6547 -19.4046 -22.5238 -28.3217 -32.5420 -32.5198
-29.5953 -24.2951 -18.7391 -15.2798 -13.6372 -13.5399
-15.5180 -16.9779 -14.8311 -12.3905 -12.5240 -12.3349
-10.9686 -11.4701 -14.2601 -15.1074 -14.5697 -15.8767
-15.7043 -12.8206 -8.8663 -4.4384 -0.7408 0.8980
-0.7492 -3.3826 -4.5663 -5.4441 -6.8493 -9.1073
-13.9292 -20.4771 -24.0597 -24.1292 -23.6036 -21.7395
-17.2393 -11.5470 -6.3265 -2.2508 0.8480 3.5333
6.2103 9.9745 14.7065 17.3019 18.0240 20.3173
22.8821 23.6663 22.6809 20.9383 19.3125 15.0189
8.9660 4.9394 4.5455 7.4310 10.4575 11.5930
9.6965 6.0990 2.7584 0.6274 1.9584 6.6413
9.9764 10.6234 12.6478 15.3888 16.3278 16.7467
20.3692 25.2337 26.9105 26.1440 22.7848 19.3449
18.7934 20.2329 23.2139 26.9254 27.3026 21.8662
14.3664 7.3356 1.8509 -0.5517 -0.8261 -1.0439
-2.6920 -4.8851 -7.9467 -14.5187 -23.0242 -29.0966
-30.2923 -26.1795 -19.2646 -11.4691 -3.8534 0.3577
-0.0187 -2.1747 -2.6910 -2.1534 -1.1004 1.8695
4.4195 4.2480 2.4442 0.2436 -2.1710 -4.8359
-7.9996 -11.4533 -15.7135 -20.7087 -22.9528 -21.5856
-19.4852 -17.3699 -14.2425 -10.7831 -9.5967 -10.0796
-9.4586 -8.6113 -8.0663 -6.3765 -2.8319 1.1752
3.9801 7.3060 10.8292 12.4087 13.4812 14.8855
16.3593 18.2456 19.0623 18.4885 18.3494 18.1400
16.3501 13.7583 11.8025 10.0682 8.2357 7.4923
7.7203 7.5822 7.2086 7.4302 7.5794 7.1011
7.1345 7.2865 4.9553 0.2418 -4.4503 -7.2061
-7.4202 -6.5433 -4.2547 -0.2300 2.4767 1.6322
-0.9002 -2.8152 -4.0916 -6.6657 -10.2631 -10.4466
-9.1582 -7.7613 -7.7622 -12.8001 -19.0921 -26.5456
-32.5150 -34.6424 -32.4437 -22.8564 -12.5786 -6.2791
-5.4050 -8.0783 -9.6439 -11.1427 -10.6821 -9.0757
-8.6539 -10.0378 -13.9801 -17.7490 -19.1190 -15.8682
-11.1325 -6.7824 -2.1228 -0.5294 -3.0849 -9.3297
-12.2773 -8.8337 -3.1971 4.1285 10.9924 14.2756
12.1974 7.6026 5.5764 6.1492 7.7936 10.2870
12.2670 12.0760 9.5186 5.5727 3.1765 4.6809
8.2867 10.3241 10.4372 10.4947 9.7661 6.4987
2.4359 0.0074 -0.1122 2.6556 6.0445 5.7488
2.1374 -1.0002 -2.4601 -1.7260 1.9252 7.0521
11.0110 12.7221 12.1891 9.3128 5.7034 2.8670
1.3700 2.2098 5.5152 7.7537 6.4801 5.5866
7.9289 11.0990 13.9800 17.9055 21.2851 22.1073
20.5918 18.6109 16.6542 14.7669 14.5426 14.1162
13.4618 14.0541 15.5530 17.9361 20.2822 22.7525
24.8510 26.4732 28.3372 28.4976 26.0319 23.0111
19.2134 12.7703 6.0519 2.8966 4.1276 8.3785
13.1958 14.8791 11.3039 4.8108 -1.3765 -4.2407
-2.1839 2.8800 8.5815 12.4756 13.3052 10.8933
5.7340 1.3329 0.5756 2.9254 5.3697 4.2333
-0.8324 -6.7045 -9.9367 -9.1488 -7.0104 -6.0010
-6.0946 -7.6416 -10.2333 -12.8909 -14.1005 -13.5425
-13.1050 -13.6917 -15.6114 -18.7361 -23.1131 -27.3028
-27.9424 -25.2969 -22.3548 -20.5204 -19.8762 -19.8345
-19.8948 -19.5268 -17.2882 -15.0311 -14.3341 -13.7130
-13.6843 -13.5110 -11.5440 -7.3737 -1.1318 5.4439
9.9302 11.2965 10.4947 8.3878 5.7989 4.0405
4.5003 7.0651 8.9681 8.7948 7.4600 6.4858
8.3396 12.9789 18.1299 21.6495 20.4166 15.1785
9.6753 5.6145 4.0072 5.0462 7.9012 8.9403
4.7061 -2.1885 -7.6824 -10.5753 -11.0703 -9.2637
-5.2038 -1.7296 -1.0900 -0.3522 0.9974 0.3143
-0.2057 2.1533 5.0175 4.9146 2.1403 -0.6748
-3.4648 -6.4449 -7.2949 -6.2642 -5.6515 -4.9702
-3.4583 -1.8928 -1.0048 -1.0761 -2.3071 -4.6448
-6.8898 -9.7847 -14.6344 -18.1882 -18.0826 -17.2029
-18.5942 -20.8513 -21.3305 -20.8430 -20.8504 -21.0330
-21.0237 -21.4964 -23.8471 -27.0580 -28.1565 -27.6652
-26.2970 -22.5420 -16.9304 -12.0723 -9.2554 -7.2893
-6.8472 -9.1506 -12.7378 -15.3703 -15.9070 -14.8244
-12.8278 -12.2327 -15.4361 -20.0977 -23.5709 -25.2783
-23.0667 -17.3734 -12.1270 -9.7995 -9.5687 -9.9209
-10.9720 -11.3382 -8.6139 -3.6344 0.9131 4.0610
6.0149 6.8983 5.9352 2.8986 -0.0852 -1.6091
-2.6287 -4.3102 -5.9128 -6.6757 -8.1708 -9.6280
-9.5668 -10.4307 -12.4486 -13.2198 -11.4930 -7.0752
-0.9658 5.5311 10.4791 11.7323 8.9478 5.0686
4.3289 7.0911 10.0258 12.8965 15.8099 15.5448
11.8472 6.7027 4.0536 6.1559 10.3892 15.0989
17.7036 17.2420 15.5355 14.0821 14.0385 14.8422
16.5607 18.7612 19.9134 20.1433 20.3389 19.9264
19.5408 20.0701 20.9896 21.8386 20.6132 18.0744
16.6182 16.0926 14.0589 9.6486 6.0743 3.7746
1.8327 1.2672 1.5073 2.8319 7.3933 13.6093
17.2995 18.0327 18.7344 19.5176 18.9707 19.4926
21.3872 21.2324 18.1467 13.6233 8.9821 5.8574
5.7981 7.3266 7.8142 6.6305 3.8608 -0.7266
-5.2797 -7.0158 -6.0824 -4.8848 -4.7448 -5.5568
-8.0975 -11.6968 -15.0597 -18.0009 -19.1586 -17.7043
-14.4266 -10.2934 -5.3798 -0.5885 1.6751 1.4211
0.5192 0.4961 0.8066 0.2986 0.3922 0.3116
-1.4551 -3.2043 -1.9121 2.7411 7.0022 10.0110
12.9299 13.3202 9.4048 4.3289 2.0125 2.9932
5.4311 8.0172 10.2261 10.1158 6.9086 2.9246
1.6464 3.5299 5.1817 5.8343 6.4933 6.2848
3.5327 -0.9073 -3.8837 -5.6254 -7.6498 -9.8874
-11.3881 -11.0183 -9.0031 -6.2418 -4.3230 -3.6677
-3.5769 -3.5759 -2.6212 -0.7163 1.8874 5.2429
8.3148 8.1359 4.5839 1.9384 1.1848 1.0587
2.2832 5.2531 7.7086 8.0626 7.6196 7.2794
6.5378 4.5996 2.2971 0.7872 -0.4559 -1.7638
-3.2876 -4.7429 -6.0323 -6.1361 -4.0218 -2.0975
-1.9593 -4.3898 -9.0337 -13.0047 -13.6860 -11.3788
-8.8798 -6.1519 -3.4341 -2.2254 -1.7007 -0.7877
1.1042 3.9480 5.9344 5.8121 5.0650 4.1640
2.5196 1.0393 0.6361 0.1596 -1.1408 -1.1946
0.6889 3.5086 6.7288 9.6672 11.7787 12.1254
11.0669 10.1381 9.1073 8.1730 7.5408 5.4830
1.5871 -3.1532 -8.0724 -11.8988 -14.0502 -15.4842
-15.8577 -14.7547 -13.1335 -11.5030 -11.0655 -12.2112
-13.1826 -12.5004 -10.9830 -9.9235 -8.6749 -7.2975
-6.1898 -5.6077 -5.8821 -6.3316 -6.1398 -4.9459
-3.2607 -1.6265 -0.2074 0.5249 -0.7302 -4.0421
-7.7712 -11.2036 -14.1791 -15.5055 -14.6629 -13.2957
-11.9322 -9.4665 -6.5754 -5.3899 -5.9052 -5.8005
-3.7501 0.1560 4.9250 9.4188 13.0700 14.8581
14.5957 13.3434 12.3970 12.2636 13.4176 16.6507
20.3807 22.9363 23.4637 21.0314 15.8462 9.8795
5.7936 4.0519 4.1038 4.1835 1.8532 -2.4793
-7.7285 -13.3031 -17.6319 -20.4423 -22.7272 -24.1936
-24.7025 -24.2993 -22.8366 -20.2541 -15.7381 -10.4722
-7.1798 -6.1981 -5.5521 -4.9811 -5.4696 -5.1915
-3.3172 -1.6710 -0.9433 -0.7098 -0.7385 -0.6931
0.0114 0.3961 -1.0008 -2.9168 -3.8280 -4.8086
-6.2074 -5.7430 -3.0734 -0.7005 0.1412 -0.1638
-1.2946 -3.1726 -5.0802 -6.3464 -7.8379 -9.9744
-10.4212 -8.7629 -7.1834 -5.5947 -3.4516 -1.2492
-0.0331 0.6389 2.0803 4.1326 6.7382 8.7960
10.2568 12.1431 13.7004 14.9962 15.6349 14.2714
12.0449 11.0289 10.7444 10.2679 9.7989 8.2926
5.2681 2.1091 -0.8339 -3.8057 -5.2526 -4.3257
-2.3977 -1.5338 -2.6303 -3.6676 -3.3246 -1.6728
2.0655 7.6030 12.9329 15.8675 16.7157 17.0049
16.2754 13.8005 10.4682 7.2934 4.1048 2.1369
2.2314 2.7477 3.0787 2.3093 0.8169 0.4768
0.9402 2.5438 5.3756 7.5252 8.0646 7.6818
7.1822 6.7169 5.4757 3.9824 4.2151 5.4831
6.9644 8.7571 9.5505 8.5142 6.6844 6.2451
6.9310 7.6392 8.8220 9.0639 7.4427 4.6535
1.3833 -0.6244 -0.3778 2.1555 6.2951 10.0196
11.7353 11.3479 9.2715 6.0347 2.6820 0.8522
1.7847 3.6608 4.4237 4.1484 2.1073 -1.3650
-3.5526 -2.8008 -0.2879 1.9933 2.8859 2.2259
0.0791 -3.6666 -7.4791 -9.1948 -7.7618 -4.7910
-2.3680 -0.5039 -0.1943 -1.7312 -3.8659 -5.3972
-5.6178 -5.2971 -5.3536 -6.0377 -8.5719 -13.7460
-18.6291 -20.3458 -19.4152 -16.5046 -12.2333 -9.2208
-8.5775 -9.7593 -12.6791 -16.1561 -17.2304 -14.1956
-10.4360 -8.6961 -8.6173 -10.2311 -12.9897 -15.5554
-16.7271 -15.9215 -13.5440 -10.6890 -9.2411 -10.7224
-13.3076 -14.8964 -15.1281 -13.8582 -12.2648 -12.0497
-13.3067 -14.0862 -14.1826 -14.3226 -12.6328 -8.9121
-5.0801 -2.3790 -0.5382 2.1286 4.6601 6.2016
8.2677 10.5368 11.6575 11.9161 13.3130 15.1001
15.7295 16.6963 17.9467 17.7252 17.2117 18.0524
18.7560 19.4113 20.6395 21.0232 19.6467 17.0550
14.7284 13.1239 11.9226 10.4590 9.0658 8.6144
8.4105 8.0638 7.5058 6.6076 6.7726 7.9971
8.6265 9.3096 10.3413 10.4655 9.2188 7.2175
5.7817 4.1735 1.8107 -0.0700 -1.4817 -2.1992
-2.6358 -4.1142 -5.7577 -6.6068 -6.8811 -5.6807
-2.5570 1.0710 3.6229 3.9037 1.0608 -4.5360
-10.9522 -15.7954 -17.5297 -16.6278 -14.0528 -10.8502
-9.3412 -10.0373 -11.6066 -13.1435 -13.5643 -13.0387
-12.1201 -11.1598 -10.3858 -10.1430 -11.0949 -10.8901
-9.1363 -7.0192 -4.1476 -1.7283 0.7049 3.0862
3.5960 3.4449 4.2671 4.3061 2.2381 -0.5131
-3.6915 -6.5947 -7.0860 -5.7530 -3.2568 -0.3082
0.7281 -0.0672 -1.4502 -3.0927 -4.6889 -5.7975
-5.9653 -4.0595 -3.7462 -10.0855 -17.9348 -19.8146
-13.0786 -3.7156 -0.2507 0.2331 0.5094 -3.2336
-9.2781 -9.6563 -3.5228 1.3167 4.2449 9.5664
12.2128 7.7144 3.5284 3.4153 3.1687 2.7340
3.2188 3.2633 1.4307 -1.5169 -3.5256 -4.5637
-5.5435 -7.1276 -8.8369 -10.1059 -11.8578 -12.5817
-8.5811 -0.7272 6.4037 9.8223 10.5008 11.5547
13.2417 14.4059 15.6508 17.2498 17.1172 14.6924
13.4846 13.7942 12.7458 11.5297 11.2321 9.3356
5.2163 1.2435 -0.9227 -1.1813 -0.1080 1.7737
3.6962 4.2903 2.5959 -0.6409 -2.2872 -1.2073
1.6189 6.1989 10.3933 12.2731 11.7522 9.7453
8.4059 8.4755 9.7120 12.0219 14.7981 15.7843
14.2947 12.0414 8.6729 4.8150 2.4893 0.4037
-1.6791 -1.6179 -0.4731 0.1423 0.6642 0.9423
0.7124 0.1433 -0.2368 -0.8773 -2.2121 -2.8517
-3.3615 -4.5581 -5.1931 -5.0513 -5.5360 -6.6187
-6.0412 -5.1236 -6.2266 -6.4963 -4.3394 -3.1622
-4.2040 -4.9604 -4.7324 -4.7611 -5.0494 -4.5303
-4.1382 -5.1375 -6.1450 -6.5214 -6.9802 -7.4993
-7.6494 -7.2453 -5.9124 -4.1809 -4.0928 -5.8178
-8.4225 -11.5509 -13.5280 -13.1378 -11.1319 -8.3984
-6.1191 -5.3645 -5.3627 -4.7185 -3.4291 -2.2241
-1.3324 -0.8161 -1.1136 -2.6032 -4.6174 -6.2970
-7.0302 -6.8263 -5.8187 -3.9250 -2.5179 -1.8672
-1.3092 -1.3889 -2.9017 -5.1560 -6.3971 -6.5760
-5.5416 -3.2094 -0.3322 2.0917 3.1521 3.5442
4.1801 6.2713 9.4590 10.8716 9.6166 7.5857
6.5002 5.9626 5.7707 6.2741 5.9858 4.4183
3.2903 2.8833 2.3976 2.5051 4.1653 6.9238
9.1846 10.6297 12.3343 13.8786 14.2253 13.7869
12.5809 10.6677 9.9336 10.8615 11.8894 11.8106
10.4555 8.5599 6.1665 3.0011 0.2027 -1.3917
-2.0220 -2.3900 -2.8970 -2.9767 -3.2418 -4.2670
-5.0892 -5.1606 -4.6813 -3.6302 -1.3740 2.2512
6.5559 10.3072 12.5411 13.6460 14.1882 13.8555
12.5003 11.0923 10.5435 10.3776 10.2404 9.9883
8.6007 5.6289 1.8202 -1.6364 -4.1020 -5.5897
-6.4101 -7.2295 -8.2843 -9.3911 -10.5025 -11.1022
-10.6424 -10.1271 -9.8128 -8.8173 -7.9617 -7.4241
-6.7892 -6.4379 -6.3044 -7.1108 -8.7496 -10.1029
-11.6074 -13.7838 -16.3968 -18.9264 -21.3262 -23.9217
-25.3816 -24.3017 -21.6479 -19.5104 -18.6252 -18.1598
-18.5074 -20.0860 -20.8961 -19.5002 -17.3979 -16.2244
-15.4004 -14.3112 -12.9996 -11.7019 -9.5755 -4.7879
1.1973 5.9108 8.9131 9.3033 6.6736 3.6379
2.9288 3.8539 5.3648 7.3966 8.2754 6.7598
4.5556 3.7371 4.9468 7.2567 9.4804 11.1693
11.0441 9.4813 8.8213 9.3858 10.8439 13.1807
14.4571 14.0029 12.8646 10.6863 8.2828 7.2409
7.6766 9.1727 11.2759 13.1974 14.4376 15.1542
14.6740 13.2326 12.7256 13.0454 13.3161 13.6201
13.2743 11.7208 9.6213 7.8750 7.3160 8.4821
11.0701 14.6462 17.1600 17.4789 17.7032 17.6671
16.7865 16.8532 17.8108 18.0073 16.7884 14.9020
13.5015 12.4846 11.1647 10.3462 10.4416 9.6139
6.9314 3.6445 1.1631 0.1573 -0.2746 -1.1394
-1.8291 -2.7171 -4.1084 -5.3468 -6.2033 -5.6860
-3.3057 0.0739 3.0633 4.6316 4.7725 3.9123
2.5674 1.1306 0.0989 -0.0178 -0.2051 -1.4073
-2.8774 -4.1529 -5.0465 -5.0687 -3.7432 -2.1461
-2.4798 -5.5210 -9.8164 -13.0904 -15.1602 -15.2269
-13.0487 -11.1948 -10.7999 -11.5220 -12.1449 -11.7333
-10.6043 -9.0777 -7.3156 -5.4979 -3.9415 -3.3502
-4.4059 -6.4202 -8.5632 -10.2030 -10.1279 -8.6921
-7.9783 -8.9711 -10.3689 -10.5506 -9.2491 -7.7568
-7.0607 -6.9448 -8.4195 -11.2541 -13.0097 -13.3480
-13.3768 -13.9450 -15.3104 -16.7851 -18.3312 -20.0572
-20.9276 -20.7996 -19.9552 -17.6045 -14.3723 -12.0105
-10.9260 -10.7563 -11.6777 -13.1293 -13.3230 -12.1254
-9.8090 -7.0504 -5.5618 -4.6432 -3.6393 -3.0174
-1.9171 -0.1142 1.4180 2.9298 4.5186 5.2407
5.8358 6.6941 6.8332 6.3196 5.2110 3.9124
3.3803 3.2932 3.4424 4.2637 5.5438 7.4125
9.3248 9.5361 8.3051 7.2484 7.0223 7.3550
8.1235 9.2043 10.0710 10.4621 9.7020 8.0827
7.5525 8.1346 7.8658 6.3456 5.0053 5.3093
7.2475 10.0200 12.4550 13.5201 13.1447 11.2815
9.3498 8.2811 7.0807 5.6847 5.6801 7.2466
7.4348 5.3575 2.5554 -0.4655 -2.9107 -3.7496
-3.5716 -3.1258 -2.5761 -2.6095 -3.0618 -2.7568
-0.6833 1.8370 3.1765 4.6234 5.7357 5.3260
4.7754 3.9653 1.8528 -0.3932 -1.2441 -0.8640
-0.0372 0.6747 0.9240 0.6255 -1.0976 -3.9238
-5.9028 -7.3433 -8.8598 -9.1202 -8.2091 -7.4415
-6.3329 -4.6348 -4.0063 -4.9407 -6.0335 -4.9379
-1.3025 5.1240 8.3423 -2.9913 -15.2519 -11.5886
-5.8982 -10.7692 -12.9874 -2.1738 0.8944 -10.4670
-16.4421 -14.8014 -12.8465 -12.4562 -11.9483 -10.9685
-7.0893 -4.7849 -11.1224 -15.6560 -10.6719 -1.0596
1.0686 -0.7583 4.7699 5.6310 -1.6399 -2.6076
5.9536 12.0519 12.7573 16.1777 17.1769 13.0066
10.3519 10.6958 14.7011 20.4406 22.9897 20.1727
15.9042 14.2608 11.3901 10.0849 15.8347 20.4990
18.2864 13.8677 11.4364 9.0801 6.5172 6.7619
8.2162 9.8968 10.9312 9.3035 6.7554 4.4158
1.5757 -0.5878 0.1844 3.2544 3.6956 2.3682
4.4121 5.4021 2.9031 2.1912 3.5454 2.9392
0.1742 -0.9752 -0.6554 -1.3441 -1.8632 -2.2664
-4.1963 -3.9062 -1.5240 -2.7447 -5.8462 -7.5388
-9.3593 -12.5063 -14.6326 -15.1526 -17.1669 -19.9097
-20.3379 -19.2154 -17.7620 -15.5410 -13.9504 -14.2257
-14.6363 -14.1701 -12.8881 -10.1732 -7.4053 -5.8842
-6.3134 -8.0495 -7.6306 -5.5329 -3.3454 0.1594
3.6159 3.9487 1.5442 0.2669 -0.1131 -1.6120
-2.3869 -1.8817 -0.7333 -0.3198 -1.1680 -1.2653
-0.7601 -1.5462 -2.7836 -2.4240 0.0769 3.8699
6.5515 7.4710 7.8835 8.0207 8.0939 8.2339
7.4015 5.5319 4.4622 6.1186 9.7615 12.8695
13.6685 11.8897 9.9302 8.3303 7.6036 9.6243
11.9509 13.1272 13.6935 12.4320 9.2118 6.0019
4.9452 5.6227 5.4411 4.3111 3.8560 3.0579
1.8010 1.4682 1.7426 2.0726 2.3368 1.9938
1.3134 1.8325 3.0793 3.9988 3.3990 0.7128
-1.0855 -0.5590 1.4859 3.3054 2.8531 1.0604
-1.6768 -5.3169 -7.3932 -7.2838 -6.0056 -3.7096
-1.5943 -2.3414 -5.7813 -8.2636 -9.0960 -9.5975
-9.3648 -8.9375 -8.9004 -8.6650 -8.8318 -9.7013
-10.4057 -9.8023 -8.3480 -7.5378 -6.2290 -4.7023
-6.1001 -9.8894 -11.2483 -9.3778 -8.1959 -8.5139
-8.7132 -8.8142 -9.6401 -10.1036 -9.5474 -9.7856
-10.5800 -9.8635 -8.1690 -6.2058 -3.2007 -0.3430
0.9631 1.1299 1.7612 3.4028 3.8579 3.0227
2.9755 3.3815 3.5530 4.1184 5.5913 7.3043
7.7001 7.7028 8.7530 8.8800 6.5497 4.4233
5.2511 7.7445 9.7560 11.8852 14.4593 15.3584
14.6391 14.3805 15.3565 16.9462 18.0474 19.0263
19.9328 19.6668 19.0967 19.9189 19.7252 16.7099
14.7893 14.8745 14.4732 13.6501 13.3571 12.7843
11.1835 10.5105 11.2827 12.3561 13.1375 12.7203
11.5886 11.0185 11.1761 12.1716 12.5516 10.7423
8.7466 7.8688 6.9196 5.8369 6.3032 7.8104
8.0560 7.0077 5.1455 2.0857 -2.2301 -5.7831
-5.9509 -4.5373 -4.3389 -4.5966 -5.4123 -7.6091
-8.8762 -8.1607 -7.5331 -7.7000 -8.9838 -11.2232
-13.5396 -16.1610 -18.4116 -18.8732 -17.2752 -16.0275
-16.0859 -15.9478 -16.0062 -15.5993 -13.9466 -12.3708
-11.0694 -9.9774 -9.9997 -10.1230 -8.8234 -6.8954
-5.7349 -6.5061 -8.3618 -9.4380 -10.1915 -10.7894
-9.9255 -6.8537 -3.8838 -3.6845 -4.6587 -5.7386
-6.9686 -6.2187 -2.6732 1.6871 5.0667 6.6240
5.6840 3.5076 3.1007 3.6568 3.3445 4.5643
6.8752 7.1273 5.1993 2.8143 0.8760 0.8260
4.0276 6.6685 5.7499 3.9331 3.5067 3.9312
5.1168 7.2487 9.1804 10.6450 10.4967 8.6892
8.3054 8.9079 8.6271 8.1330 8.3555 8.9357
8.9089 8.6410 7.2515 4.5764 3.3658 4.6237
6.7658 8.0042 9.1313 10.1612 8.1117 4.0453
1.2348 -1.0056 -3.5315 -5.1110 -5.8396 -7.6869
-10.4103 -11.4002 -11.2445 -11.8757 -12.5496 -12.9473
-14.6760 -18.2095 -21.0348 -21.3026 -20.4119 -20.4091
-20.9504 -20.8253 -21.0709 -22.3195 -23.3113 -23.1834
-22.5141 -21.9218 -20.5286 -18.1993 -15.9209 -13.8019
-11.2760 -8.6861 -8.0401 -9.0810 -8.9086 -7.7824
-7.6610 -8.1179 -8.1170 -7.7194 -7.6257 -6.8221
-4.8802 -4.5567 -4.8931 -3.6946 -3.3359 -4.5910
-5.6412 -5.7070 -4.9525 -3.1153 -1.2735 -1.5997
-1.8472 0.4933 2.6419 3.0220 3.0396 3.3547
4.3373 4.8768 3.9081 1.9940 0.2949 -0.1704
-0.2668 -0.4883 -0.4689 -0.5597 -0.9592 -1.1149
-1.4709 -2.9558 -4.0431 -4.1432 -5.0090 -5.7422
-3.8466 -1.1066 -0.7265 -1.4431 -2.2764 -4.3610
-6.3808 -5.4029 -1.0111 3.4623 5.6211 5.7509
4.8174 2.5900 -0.3993 -1.2391 0.6351 3.1888
4.8239 5.8065 6.3821 5.7833 4.1056 2.5251
2.2906 3.1193 4.1501 4.6960 3.8887 2.1970
1.2228 1.6705 3.0415 4.4662 5.5025 5.5395
4.1909 2.6271 1.2061 -0.3177 -0.6209 0.3357
1.1255 1.5519 1.6779 1.1079 0.1300 0.1485
1.9829 4.8768 7.7030 9.9740 11.8446 12.6195
11.6675 10.1640 9.4596 9.5597 9.8554 10.4866
11.0233 10.3411 9.1787 8.4844 8.0488 7.9524
6.9717 4.6377 2.4668 0.6936 -0.2343 -0.3956
-0.3520 0.1050 0.5304 1.1505 2.0404 2.6855
2.7773 2.4696 2.5131 2.7115 2.8070 2.7514
2.0441 0.8104 -0.7302 -1.7600 -1.4653 -0.6023
-0.0674 -0.1759 -0.7209 -1.3985 -1.6636 -1.4532
-0.9017 0.3525 1.5575 2.4344 3.7691 4.9853
5.1169 4.8472 4.9658 4.8787 4.0621 2.9803
2.4816 2.6466 2.6605 2.1961 1.4481 0.2125
-1.5134 -2.7147 -2.8890 -2.6165 -2.1549 -1.6719
-1.1807 -0.7737 -0.9128 -1.3837 -1.2650 -0.4002
0.3525 0.7001 0.6899 0.5128 0.2783 -0.0526
0.1300 0.9263 1.3128 0.8364 0.0911 -0.6217
-0.8247 -0.2296 0.9485 2.4993 3.6190 3.6366
3.1639 3.0202 3.2223 4.0964 5.8455 7.6604
8.3056 7.6169 6.4712 5.4386 4.8277 5.1976
6.5880 8.0674 8.9980 8.8006 7.5223 6.3294
5.7658 5.8029 6.7382 8.0257 7.6883 5.1651
2.4186 1.4305 1.5557 1.3999 1.6919 2.4094
2.5948 2.4798 2.9896 4.2679 5.2931 5.8585
6.4684 7.0515 7.1432 7.0783 7.1052 7.1182
7.6160 8.0488 7.5937 6.7725 6.4388 6.9291
8.1962 9.6877 10.4014 9.9463 8.7320 7.3388
6.4008 6.6612 8.1332 9.4902 9.4597 8.2268
6.5760 5.2477 4.8333 4.9446 5.1800 5.3274
5.0780 4.4329 3.3938 2.5596 2.1981 2.0368
2.3223 2.7811 2.6819 1.9756 1.0913 0.0077
-1.4068 -2.5515 -2.8871 -2.7082 -2.7369 -3.2912
-4.0726 -4.8614 -5.7995 -6.9081 -7.6858 -8.1215
-8.6572 -8.9724 -9.1216 -10.1524 -11.8913 -12.8062
-12.6143 -11.8042 -11.2193 -11.2730 -10.9820 -10.3489
-9.5508 -8.7036 -8.4496 -9.1105 -11.4046 -14.1576
-15.2533 -14.9789 -13.8823 -12.3214 -11.1655 -11.8505
-14.6090 -16.9579 -17.7310 -16.9857 -14.4783 -11.0339
-8.0695 -6.9090 -7.3196 -8.2132 -8.9103 -8.9705
-8.3198 -6.7042 -4.5259 -2.7591 -1.8201 -1.4299
-1.3038 -1.5217 -1.5875 -1.1546 -0.3092 1.0728
2.1620 1.8283 0.5612 -0.6364 -1.5152 -1.8498
-1.2149 -0.2777 -0.0469 0.0170 0.1700 -0.0525
-0.3398 -0.4399 -0.6735 -0.8941 -0.9025 -1.4151
-3.0010 -5.0644 -6.5354 -7.5903 -8.4838 -8.9306
-9.2041 -9.3366 -9.2495 -8.3939 -6.4084 -4.1968
-2.7415 -2.4375 -3.1901 -4.3673 -4.9680 -4.5981
-4.3099 -4.6361 -4.8929 -5.3415 -5.7225 -4.9661
-3.3162 -1.4484 0.2840 1.2703 0.7920 -0.9460
-3.0270 -5.1163 -6.1915 -5.6826 -4.5054 -2.7656
-0.8589 0.2683 0.0857 -0.2100 0.3675 0.7253
0.9375 1.3574 1.0423 -0.2647 -0.5928 0.4685
0.6687 0.3777 0.6057 0.2090 -1.1749 -2.1195
-1.7218 -0.9562 -0.2323 0.5732 0.6363 0.1163
-0.2536 -0.5780 -0.7291 -0.5298 -0.0784 1.1535
3.3133 5.6009 7.5651 8.6366 8.5977 7.7616
6.4296 5.7298 5.4424 5.0262 5.1505 4.9261
3.5061 1.6392 -0.0728 -1.0034 -0.4130 1.1619
2.5050 3.4903 4.2513 4.2708 3.9047 4.3885
5.6482 6.2999 6.6271 7.4131 7.7218 7.5568
7.4242 7.2110 7.3603 8.2056 9.1196 9.3587
8.9481 8.0777 7.3881 7.6282 8.1537 7.9860
7.1758 6.1933 5.3173 4.6685 4.3978 4.5526
4.8687 4.8678 4.6685 4.6536 4.2653 3.3300
2.3196 1.3278 0.3221 -0.7151 -1.5466 -2.0138
-2.3688 -2.8054 -3.0760 -2.8693 -2.3484 -1.9239
-1.9582 -2.4059 -2.7609 -2.9722 -3.1437 -2.6413
-1.6374 -1.1424 -0.6808 0.5696 1.7292 2.1852
3.0260 4.7204 6.0626 6.7615 7.4354 7.2268
5.8587 4.6036 4.2848 4.9651 6.0626 6.6373
6.3796 5.6121 4.5628 3.7786 3.7295 4.5054
5.4944 5.9477 6.3537 6.5965 6.1915 6.1831
7.3455 8.4930 8.5190 8.0889 7.8405 7.3112
6.8144 7.1647 7.4048 6.8941 6.3871 5.9903
5.3971 4.3821 3.2290 2.4884 2.3002 2.4967
2.5913 2.6135 2.5950 2.2427 1.7997 1.4382
1.1184 0.7300 0.3972 0.0923 -0.3694 -0.9116
-1.9757 -3.2688 -4.3162 -5.2191 -5.3164 -4.0178
-2.2890 -1.5252 -1.5364 -2.1750 -3.7814 -5.4962
-5.7780 -4.9315 -4.9315 -4.5459 -4.7434 -5.1920
-5.8881 -6.9930 -7.7411 -7.4278 -7.0709 -6.9124
-6.3803 -6.3785 -7.4268 -7.6113 -6.5147 -5.9141
-5.9873 -6.0355 -6.0105 -6.3868 -6.9763 -7.2628
-7.4278 -7.4481 -7.1515 -6.5360 -6.1365 -6.3822
-7.3749 -9.3669 -11.4506 -12.4045 -12.5157 -12.0810
-10.2428 -8.0099 -7.0292 -6.6019 -6.6158 -6.9077
-6.5499 -5.4747 -4.0009 -2.1248 0.2593 2.1743
3.3108 4.0245 4.3601 4.4101 4.7188 5.3611
5.7143 5.7792 4.7410 3.0457 1.7016 1.0009
1.2706 1.2808 0.2843 -1.1200 -2.4575 -3.8238
-4.4291 -3.5745 -2.5799 -2.6012 -2.9850 -3.5013
-4.1279 -4.0203 -3.9239 -4.7888 -5.7463 -6.1198
-7.2108 -8.4965 -7.9107 -6.8734 -6.5536 -6.2107
-6.4813 -7.5510 -7.8680 -7.0384 -6.0290 -5.3866
-5.3143 -5.8464 -6.5861 -6.8957 -6.3006 -4.7637
-3.8989 -4.4124 -4.7925 -4.8462 -5.1567 -4.8611
-3.4058 -2.3444 -1.8179 -1.3952 -2.2554 -3.6607
-3.8201 -2.4612 -0.8956 0.5634 2.2680 2.9521
2.5062 2.2402 2.7240 3.3683 3.7381 4.5084
5.0822 4.3619 3.3887 3.0383 2.9864 3.1606
3.4999 3.6167 3.0123 2.1364 2.0743 2.8918
3.9013 4.6280 5.5011 6.3854 6.6802 6.4207
5.6958 5.8358 7.1029 8.1179 8.9289 9.3173
8.5925 7.1316 5.7375 4.6400 3.7483 3.8336
5.0571 5.5067 4.1877 2.9576 1.7981 -0.5823
-1.6724 0.1268 2.1243 2.8714 3.1903 2.5915
1.7517 2.4608 3.7400 4.1895 4.2322 3.7984
2.5378 1.6840 1.3726 1.0055 0.7098 -0.0206
-0.9762 -1.1848 -0.8548 -0.9114 -0.8029 0.1676
1.0333 1.2224 1.5089 1.8574 1.9955 2.5127
3.3062 4.4454 5.2379 5.4585 6.0870 6.0712
5.0878 3.9625 3.0031 2.2439 1.6062 1.3226
0.9889 0.6209 0.2844 -0.1346 -0.8873 -2.2285
-3.2083 -3.9443 -4.5839 -4.1593 -2.8792 -2.0468
-2.2091 -2.1989 -1.5519 -1.0763 -0.8502 -0.1327
1.1882 1.7100 0.9175 -0.2986 -2.1266 -4.4365
-5.9743 -6.1661 -5.1966 -3.9786 -3.6032 -4.2270
-5.6090 -7.1487 -7.8522 -7.7076 -7.1218 -6.2384
-5.3551 -4.8350 -4.5533 -4.1547 -4.4300 -4.6784
-3.4623 -1.9115 -0.4432 1.3254 2.6917 3.6937
4.6688 5.7329 7.2336 8.2199 8.2987 8.2560
7.8871 7.4236 7.3161 7.2262 6.8369 6.0657
4.8792 3.7317 2.8057 1.5729 0.8341 0.7303
0.1472 -0.2986 -0.5109 -1.2969 -2.3851 -3.0785
-2.9682 -2.4074 -1.4480 -0.3858 -0.0836 -0.2523
-0.3895 -0.3505 -0.5192 -0.8946 -0.6091 -0.2198
-0.5424 -0.9299 -1.1162 -1.7242 -2.5770 -3.5948
-4.8276 -5.3949 -5.2243 -4.6598 -3.7663 -3.2305
-3.5225 -3.7728 -3.3084 -2.6159 -1.7011 -0.4080
0.7729 1.4394 1.4394 0.8267 0.0406 -0.0956
0.7739 2.0966 2.8984 2.9095 2.6259 1.3476
-0.5971 -1.6269 -1.9680 -1.9467 -1.5880 -1.2330
-1.5972 -2.9969 -4.7071 -6.3848 -7.5630 -7.4527
-6.5637 -5.7935 -4.9036 -4.1880 -4.2705 -4.7590
-4.8091 -4.3400 -3.9720 -3.6977 -3.7199 -4.2353
-4.6079 -3.9934 -2.3193 -0.3644 1.3235 2.6277
3.5769 3.7141 3.2469 3.5120 4.6929 6.3169
8.0929 9.4657 9.4750 8.1940 6.8277 5.5124
4.9219 5.4512 5.9740 5.6977 4.8867 4.2777
3.2905 2.0048 1.4876 1.4459 1.5645 1.7611
1.3727 0.5023 -0.3282 -1.1143 -1.5388 -1.4174
-1.0670 -1.2218 -1.9272 -2.3619 -2.5761 -2.5733
-2.2155 -1.6324 -0.8538 -0.0882 0.4504 0.1408
-0.7454 -1.6083 -2.9895 -4.2464 -3.9322 -2.9311
-2.9848 -3.7885 -4.7089 -5.3652 -5.4208 -5.2224
-4.5189 -3.1211 -1.7288 -0.8084 -0.3774 -0.1614
0.3846 0.9231 1.4543 2.8771 4.3667 4.8691
4.5613 4.1275 3.9190 3.7929 4.3945 5.0526
4.6781 4.2082 4.4028 4.9043 4.4445 3.3730
3.3684 3.1635 2.0336 1.8167 2.2459 1.9641
2.1124 3.7039 4.3444 3.7633 4.2443 4.2527
2.5814 0.8953 0.0676 -0.9215 -2.4490 -3.3658
-3.9674 -4.5560 -4.7673 -4.7960 -5.3411 -6.3051
-6.2040 -5.2474 -4.6236 -4.5828 -4.6653 -4.7784
-4.9944 -4.3085 -2.9876 -1.7900 -0.4107 1.0696
1.7231 1.0335 0.4773 0.4680 0.0583 -0.1345
0.1881 0.6247 0.7424 0.2391 -0.2587 -1.0698
-2.1821 -2.2266 -1.8688 -2.0273 -1.8243 -0.9761
-0.5219 -0.8408 -0.7852 -0.4339 -0.7184 -1.1217
-0.9706 -0.0677 1.0353 1.6814 2.2403 2.6176
2.0911 1.2328 1.0613 1.3440 1.7852 2.1050
1.8102 0.8564 -0.7184 -2.1932 -2.8550 -2.9561
-3.0877 -3.7996 -4.7126 -5.2456 -5.5274 -5.5348
-4.8831 -3.4306 -1.9040 -1.0049 -0.7499 -1.1244
-1.8465 -1.7649 -0.2726 1.6091 3.1024 3.8050
2.8716 0.6358 -1.7594 -3.1136 -2.2126 -0.6582
-0.9400 -1.7863 -1.1661 -0.7221 -2.2757 -3.9924
-3.8570 -2.3535 -1.5749 -1.8354 -1.8734 -2.3053
-3.3639 -3.0979 -1.1633 -0.5117 -0.5998 1.5952
3.8273 3.3360 2.4619 2.6973 2.2033 1.1605
0.6507 0.5283 0.5107 1.0085 2.1124 2.4563
1.0530 -1.0224 -1.2421 -0.5043 -1.0095 -0.9641
0.4097 1.2078 1.0400 0.3392 -0.5692 -0.4246
0.7211 1.2217 2.0939 4.1906 5.6135 5.4522
4.0720 2.7891 1.8270 0.9121 1.0437 1.9484
2.7048 2.8271 2.3201 1.4302 0.3225 -0.6600
-1.0363 -0.5692 0.3772 1.1762 1.3005 1.1614
0.8351 0.0435 -0.3866 -0.1168 0.0723 -0.4922
-2.1199 -3.9812 -4.7450 -5.4912 -5.5718 -3.4362
-1.3459 -0.9492 -1.3923 -0.8788 -0.0241 0.1131
1.1985 2.9736 3.6095 3.7003 4.3538 4.8515
4.8098 4.9109 5.1000 4.9035 4.4539 4.3232
4.7644 4.5735 3.4463 2.3275 1.0882 0.5478
1.7000 3.6002 4.9804 5.3132 4.5364 3.8977
4.1267 4.5800 5.7182 7.0632 7.9030 8.1236
7.5730 7.1948 7.0716 6.8046 6.5794 6.8435
6.7833 5.3076 4.2073 3.9413 2.5333 1.0678
1.4627 1.8149 0.2818 -1.4321 -2.1913 -3.0719
-4.0961 -3.8180 -2.6158 -2.3526 -2.1449 -2.1866
-3.6586 -4.0748 -2.8948 -1.9132 -1.6657 -1.7491
-2.5166 -3.8347 -4.0581 -4.1035 -4.6356 -4.4530
-3.7494 -3.6929 -4.2268 -4.3835 -4.6606 -5.1649
-5.0898 -4.4419 -4.1119 -4.5568 -4.9934 -5.2891
-5.2214 -4.2175 -3.1256 -2.6770 -2.5361 -2.6214
-2.9856 -3.1896 -2.8670 -2.3600 -2.0550 -1.9910
-1.7463 -1.2013 -1.6703 -2.4397 -2.0476 -1.5702
-1.6342 -1.3959 -0.4375 -0.5024 -1.9614 -2.7826
-2.6232 -1.8297 -0.2382 1.7528 3.5372 4.6347
4.7960 4.4539 3.6373 2.8726 3.0487 3.4158
3.8255 4.5012 4.9619 4.6579 3.7504 3.2100
2.6946 2.3211 2.4499 2.3340 2.1616 2.2117
2.2970 2.3924 2.6659 3.0802 3.4927 3.8236
3.5975 2.8355 2.4694 3.5140 5.3596 6.6675
7.8308 8.2062 7.1782 6.5572 6.9177 7.6037
8.1385 8.8819 9.0321 7.2635 5.3132 4.2176
3.4195 3.2387 3.9154 4.2287 2.8707 0.6109
-0.8314 -0.9658 -0.4115 0.6795 2.0439 2.5296
1.6694 0.1335 -1.1586 -1.3663 -0.5088 0.4978
0.6832 0.0733 -1.0270 -2.8975 -3.9830 -3.1534
-2.1384 -1.5887 -1.2272 -1.6304 -2.6120 -3.7049
-4.6430 -5.0545 -5.2408 -5.3910 -5.5486 -5.7784
-5.7608 -6.1483 -7.2374 -7.6991 -7.2560 -6.7109
-6.0028 -4.8738 -4.0386 -4.3352 -4.6476 -4.0812
-3.5482 -2.9077 -2.0633 -1.9409 -2.7168 -3.3517
-2.9606 -2.0679 -1.4219 -1.1234 -0.7165 -0.3828
-0.5811 -0.7118 -0.4894 -0.5413 -1.0576 -1.3134
-1.1985 -1.2281 -1.3894 -1.4756 -1.7389 -2.2264
-2.0716 -1.4969 -1.4385 -2.0058 -2.9615 -4.0163
-4.9423 -5.1704 -4.3713 -3.2201 -2.5518 -2.2450
-2.0429 -2.0596 -2.2236 -2.3423 -2.1161 -1.5442
-1.0483 -0.9806 -0.9871 -0.5515 -0.0898 -0.0231
0.1957 0.6656 0.6916 0.3264 0.3551 0.8770
1.4897 1.8437 1.8558 2.2674 2.6567 2.7419
3.6346 4.6727 4.8572 4.9202 5.5422 6.0752
6.1308 6.4543 7.1838 7.9495 8.4324 8.0848
7.2181 6.5192 5.7007 4.8804 4.8646 5.5691
6.0205 5.5543 4.9675 4.8730 4.6014 4.0721
4.0443 4.7849 5.3198 5.0927 4.3428 3.2286
2.5334 2.8754 4.0582 5.6590 6.9104 7.1569
6.2383 4.5699 3.2342 2.4314 2.0931 2.6585
3.7375 4.4336 4.3854 3.8812 2.8217 1.5008
0.6063 -0.2326 -1.4292 -2.4377 -2.7751 -3.0143
-3.2015 -3.2683 -3.8216 -4.7347 -5.7283 -6.4940
-6.7721 -6.5376 -6.0352 -6.1557 -6.9621 -7.6248
-7.5247 -6.4801 -5.0026 -3.6159 -2.6333 -2.6695
-3.6585 -4.6930 -5.0248 -4.5280 -4.0691 -3.9486
-3.9625 -4.5641 -5.2408 -5.1434 -4.5141 -4.2193
-4.7847 -5.4122 -5.7256 -6.1566 -6.1065 -5.1620
-3.9292 -3.2349 -3.2933 -3.9217 -4.6874 -4.6522
-4.1238 -3.4027 -2.4618 -2.1383 -2.1624 -2.1569
-2.3710 -2.5045 -2.2653 -1.7268 -0.6960 0.8659
2.1441 3.1387 4.1556 4.5819 4.3725 3.6152
2.4315 1.3720 0.5693 -0.0091 0.0048 0.7417
1.0698 0.4330 -0.4522 -1.0316 -1.0974 -0.9592
-0.7961 -0.9101 -1.6007 -2.4127 -3.1385 -4.1053
-5.1508 -5.6208 -5.9378 -6.5338 -6.9324 -7.1437
-7.1048 -6.4272 -5.6199 -5.1916 -4.5910 -3.9069
-3.8596 -4.2628 -4.7170 -5.2695 -6.0518 -6.8508
-6.8425 -5.7098 -4.4834 -3.8160 -3.3174 -2.5693
-1.8723 -1.6980 -1.6146 -1.4403 -1.1826 -0.5440
0.4960 2.0857 3.7737 4.7331 5.0037 5.2225
5.7851 6.5619 7.3544 7.8819 8.0181 8.0376
8.2721 8.8004 9.0183 8.5641 8.0190 7.5352
6.9410 6.6425 6.5860 6.3496 6.0391 5.6183
4.5393 3.1072 2.8672 3.7607 4.3818 4.7692
5.2994 5.8649 6.1596 5.7221 4.8091 4.1834
4.0471 4.4244 5.3754 5.9807 5.8760 5.8213
5.6220 4.8777 4.3725 4.2715 3.7811 3.2268
2.6466 1.9467 1.6075 1.8021 1.8151 0.3663
-0.0323 1.0865 0.1930 -1.2299 -1.6878 -1.8982
-1.8083 -2.4664 -2.8492 -2.5851 -3.0810 -3.2265
-2.9938 -3.1458 -3.1653 -2.2476 -1.4088 -1.5367
-1.2048 -1.1668 -1.5524 -1.8426 -2.0011 -1.3661
-1.0964 -1.5172 -1.8871 -2.7055 -4.1682 -5.2667
-5.6810 -5.8247 -5.6476 -5.1258 -4.8152 -4.3694
-4.3054 -5.0878 -5.3825 -5.6096 -4.7123 -2.0363
0.0567 1.1644 2.0394 2.2211 1.4768 0.7019
1.0152 3.0665 5.0297 5.8565 6.4053 5.6665
3.8961 2.5020 1.7280 2.0450 2.6521 3.1573
4.6747 5.4987 5.3801 6.0586 6.0707 5.3050
4.8823 4.2502 4.0314 4.6895 5.0214 5.2355
5.6749 4.7350 3.0322 2.2341 2.0598 2.7402
4.0184 4.8508 4.6701 3.2908 1.3072 -0.2547
-1.0509 -1.3420 -0.8238 -0.0313 -0.0248 -0.5263
-1.3142 -2.1373 -1.8963 -1.1714 -0.7441 0.0688
0.5406 0.0067 -0.8498 -1.3448 -1.4690 -1.5135
-1.1557 -0.2751 0.5628 1.0087 1.0578 0.7102
-0.2213 -1.4783 -2.0492 -2.2856 -1.7804 -0.3057
0.2421 0.3552 0.5582 0.7130 1.6909 2.7931
3.3705 3.8553 4.3114 4.0991 3.6004 4.0101
4.4050 4.0416 3.8331 3.5124 2.5910 1.6307
1.0578 0.4850 -0.5559 -1.8416 -2.9725 -3.2542
-3.0448 -3.1857 -3.1857 -3.2283 -3.6612 -3.7511
-3.1671 -2.2365 -1.5793 -1.3040 -1.1232 -1.4032
-2.3533 -3.3024 -3.4776 -3.0253 -2.5868 -2.3635
-2.1836 -2.1141 -1.9880 -1.3948 -0.7385 -0.2658
0.0595 0.2987 0.0790 -1.0593 -1.9315 -2.5312
-3.2515 -3.6037 -4.0774 -4.5974 -4.7661 -4.3462
-3.8521 -3.1541 -1.7229 -0.4892 0.1865 0.5740
1.0810 1.4314 1.1635 0.8187 0.4034 -0.3872
-1.0713 -1.1427 -0.6903 -0.1240 0.2839 0.1068
-1.0157 -2.3560 -3.2199 -3.6435 -3.7983 -3.9633
-4.3285 -5.0395 -6.0888 -7.2808 -7.9269 -7.5070
-6.8016 -6.0350 -4.6140 -3.4897 -3.7742 -4.7484
-5.4826 -5.5382 -4.9700 -3.9439 -2.5460 -1.8518
-2.1187 -2.2689 -2.0140 -1.7850 -1.5542 -1.2882
-1.2261 -1.4523 -1.8638 -1.9000 -1.8184 -1.9268
-1.6265 -1.2743 -1.2465 -1.5069 -2.1308 -2.7657
-3.1977 -3.5063 -3.8715 -3.8688 -3.2959 -2.9270
-2.7574 -2.5405 -2.6489 -3.0132 -3.1930 -2.9641
-2.7240 -2.8065 -3.0651 -3.3117 -3.2412 -2.8260
-1.9435 -0.8794 -0.6783 -1.3049 -2.1252 -2.7147
-2.4765 -1.8147 -1.4013 -1.1056 -0.9295 -0.9916
-1.2020 -0.8961 0.0401 0.4915 0.3479 0.5434
1.2776 1.8476 2.2101 3.0276 3.0017 1.7614
0.6834 0.1347 0.4934 1.1321 2.6430 4.6776
4.8722 3.9351 3.0026 2.1591 1.1228 0.9077
2.4585 3.7275 3.2955 2.6559 2.9609 2.5215
1.9116 3.0897 4.4264 4.5172 4.2948 4.7860
5.2032 5.5517 6.4805 6.9866 7.2888 7.2823
6.4684 5.9428 6.0012 5.8242 5.4228 5.5387
5.3997 4.5135 3.4485 1.9227 1.0449 1.1868
0.7854 0.4897 1.0384 0.9522 0.1152 0.0272
0.2163 -0.2361 -0.2713 0.1783 0.1403 0.2886
0.4990 0.1644 -0.2370 -0.2963 0.0429 0.4851
0.7993 0.6454 0.7112 0.8985 0.8030 1.3462
1.9024 2.3352 3.0304 3.4958 3.9991 4.5645
4.8333 4.5617 3.8452 2.9313 1.6660 0.7252
0.6575 1.0607 1.6910 1.7921 1.5001 1.6271
1.6456 1.3082 1.1321 1.0700 0.7520 0.5824
0.8522 1.0450 1.1896 1.5520 1.5325 1.2544
1.3212 1.3054 1.4500 2.2064 3.1871 3.5912
3.1630 2.9350 2.7338 1.8338 1.3601 1.6632
1.5678 0.9560 0.5101 0.2228 -0.0683 -0.0071
0.6696 1.8607 3.0851 3.6849 3.5125 3.0017
2.7227 2.4752 2.0016 1.9052 1.7263 1.0348
0.7280 0.8105 0.8679 1.0830 1.2424 0.9421
0.3340 -0.0961 -0.2694 -0.3862 -0.2880 -0.2713
-0.8005 -1.4883 -1.6663 -1.2992 -0.5475 0.5259
1.2044 1.1432 0.8003 0.5824 0.6584 1.2786
2.3167 3.1213 3.2029 2.4623 1.6818 0.9819
0.1579 -0.0330 0.2766 0.5203 0.5546 0.4267
0.2515 -0.1294 -0.3334 -0.3250 -0.9581 -1.6895
-1.9787 -2.7286 -3.6703 -4.1004 -4.5166 -5.1784
-5.5826 -5.6743 -5.8264 -5.8208 -5.5863 -5.4426
-5.4584 -5.5705 -5.5019 -5.1145 -4.8077 -4.6315
-4.4842 -4.5639 -4.7279 -4.9393 -5.1599 -5.0255
-4.4397 -3.8863 -3.5535 -3.5044 -3.8205 -4.2283
-4.6631 -4.6362 -4.0392 -3.3598 -3.1012 -3.3681
-3.8798 -4.6751 -5.1756 -4.9893 -4.1532 -2.8296
-1.7877 -1.2251 -0.9794 -1.0554 -0.9192 -0.1443
0.9264 1.8023 2.7153 3.7563 4.2077 3.9064
3.3049 2.9313 2.7774 2.5281 2.3223 2.1583
2.0544 1.8774 1.6846 1.7152 1.4492 1.0422
0.7502 0.4212 0.3062 0.2719 0.3980 0.6983
0.7289 0.2766 -0.3389 -0.5484 -0.3991 -0.1822
0.2052 0.6177 0.3211 -0.5651 -1.3344 -1.7590
-1.8350 -1.6403 -1.1231 -0.7866 -1.0137 -1.5587
-1.9341 -1.7997 -1.4790 -0.9043 -0.3945 -0.4001
-0.6383 -0.9229 -1.1240 -1.2603 -0.9275 -0.1062
0.2404 -0.0265 -0.2026 -0.1368 -0.2406 -0.6550
-0.9043 -0.9868 -1.5179 -2.3133 -2.9019 -3.0947
-3.0205 -2.8092 -2.0333 -1.6394 -2.4755 -2.9732
-2.9056 -3.1160 -3.2068 -2.8740 -2.9093 -3.7852
-4.1032 -4.2338 -4.7455 -4.5648 -3.8149 -2.8685
-2.1900 -1.9091 -2.0685 -2.4541 -2.6052 -2.6516
-2.2252 -1.3066 -0.5734 -0.1489 0.4527 1.1025
1.1424 0.7836 0.3823 0.1283 0.1950 0.2080
-0.1118 -0.4279 -0.3528 -0.5576 -0.8283 -0.4297
-0.2629 -0.4204 -0.1451 0.5130 0.8782 1.0673
1.6920 2.4781 3.1047 3.5339 3.8694 4.0326
4.0826 4.2847 4.2569 3.7165 2.9443 2.4188
2.0415 1.4492 1.3305 1.5206 1.2786 0.9867
0.8587 0.9357 1.1980 1.5614 1.8339 2.2705
3.0250 3.5858 4.1568 4.9771 5.8382 6.1413
5.9328 5.6955 4.9641 4.0418 3.5626 3.1900
2.7515 2.5903 3.0111 3.4152 3.2549 2.9342
2.3752 1.3370 0.1126 -0.8348 -1.2370 -1.3093
-1.1629 -1.0257 -0.9210 -0.4204 0.4991 1.4817
1.6216 1.0553 0.6669 0.1691 -0.4872 -0.6318
-0.1479 0.1923 0.3323 0.3962 0.1089 -0.0246
0.1265 0.0727 -0.0181 0.2655 0.7299 1.1341
1.2388 1.1823 0.9264 0.1673 -0.3648 -0.5066
-0.4927 -0.0487 0.6725 1.1656 1.2129 1.0961
1.0757 1.0247 0.8041 0.5028 0.0996 -0.4658
-0.9793 -1.1712 -1.4048 -1.6106 -1.2519 -0.7643
-0.2943 0.1626 0.2247 0.0468 -0.1812 -0.5437
-0.8653 -0.7875 -0.6317 -0.7689 -0.9506 -1.1490
-1.4956 -1.7301 -1.6532 -1.4947 -1.3316 -1.4650
-1.7385 -1.7292 -1.8553 -1.9211 -1.6375 -1.2101
-0.6280 -0.0876 0.2396 0.7531 1.5744 2.3345
2.9499 3.4245 3.7666 3.9223 4.0901 4.5072
4.7195 4.4534 3.9622 3.4459 2.7247 1.9757
1.8339 2.0008 2.0508 1.9618 1.7004 1.5067
1.4974 1.3918 1.2527 1.3204 0.8365 -0.0459
-0.3750 -0.5168 -0.7633 -0.8115 -0.6048 -0.5196
-0.5752 -0.5501 -0.6521 -0.7874 -0.7031 -0.5297
-0.0644 0.4565 0.3592 -0.3750 -1.7023 -2.8462
-3.4487 -3.5423 -2.8406 -2.3067 -2.1843 -2.5579
-3.6192 -4.3663 -4.5174 -4.4275 -4.0326 -3.3940
-3.0705 -2.9425 -2.7256 -2.5616 -2.3224 -2.2288
-2.3910 -2.3641 -2.3095 -2.5087 -2.7229 -3.0111
-3.2392 -3.2169 -3.1418 -3.2772 -3.5645 -3.4570
-3.3532 -3.8352 -4.3441 -4.7204 -5.2840 -5.7002
-5.5157 -5.2293 -5.1459 -4.8205 -4.5128 -4.5647
-4.6796 -4.8817 -5.2284 -5.1802 -4.5749 -3.8064
-3.0769 -2.4244 -2.0879 -2.3372 -2.7247 -2.8823
-2.7534 -2.1945 -1.5308 -0.8022 -0.3008 -0.5733
-0.9265 -0.8792 -0.8310 -0.8393 -0.6159 -0.2906
-0.3925 -0.8106 -1.2694 -1.9414 -2.4957 -2.4503
-1.9804 -1.7996 -1.8005 -1.1053 -0.3823 -0.1089
0.5483 1.3177 1.5021 1.5652 2.0944 2.4513
2.3011 2.2325 2.2242 2.2057 2.5134 3.1576
3.7574 3.9594 3.7898 3.5868 3.1715 2.5060
2.1945 2.1649 2.4096 2.9917 3.6007 3.9112
3.9038 3.9650 3.8213 3.9817 4.8419 5.1987
5.2006 5.5621 5.5945 5.0708 4.8372 4.8854
4.8261 5.1441 5.6613 5.9310 5.9876 5.6919
5.0745 4.2820 3.5952 3.1502 2.9417 3.1141
3.1882 2.8267 2.1686 1.2723 0.5289 0.1377
0.1294 0.3926 0.7383 0.8301 0.3833 -0.2062
-1.0775 -1.9090 -2.0258 -1.8191 -1.8914 -2.3363
-2.7089 -3.1390 -3.4894 -3.3364 -2.9657 -2.6514
-2.7108 -3.0917 -3.4644 -3.6544 -3.7054 -3.4931
-2.8971 -2.2445 -1.6466 -1.2796 -1.0923 -0.8328
-0.5482 -0.0681 0.6262 1.0674 1.0322 0.9636
1.0266 1.0424 1.2908 1.9017 2.4291 2.6998
2.8981 2.7109 2.0611 1.3205 0.5178 -0.0171
-0.1431 -0.0968 0.2601 0.8524 1.2333 1.0850
0.7374 0.5001 0.4742 0.8487 1.0118 0.8524
1.0304 1.3501 1.2361 0.7736 0.2443 -0.4018
-0.9032 -1.1989 -1.4399 -1.5845 -1.5067 -1.1980
-1.1359 -1.4566 -1.9673 -2.7191 -3.9417 -4.9456
-4.7834 -4.2003 -3.8768 -3.4245 -3.0407 -3.1640
-3.4616 -3.5783 -3.4745 -3.2567 -3.0630 -2.7775
-2.2195 -1.9201 -2.1917 -2.1805 -1.7541 -1.3064
-0.6909 0.1322 0.9618 1.6588 2.1186 2.1464
2.0027 2.1751 2.6071 3.0752 3.5173 3.8696
4.0865 4.0679 3.9326 3.7546 3.7342 4.0791
4.2728 4.2895 4.3998 4.3330 3.9808 3.4525
2.8685 2.2169 1.6440 1.4178 1.3956 1.3882
1.5643 1.9230 2.1316 2.2187 2.4625 2.7675
2.7906 2.8611 3.3292 3.6990 3.7380 3.7361
3.6137 2.7193 1.5226 0.9247 0.1813 -0.9375
-1.6299 -1.3861 -0.7039 -1.0172 -1.2758 -1.0154
-2.3205 -4.0455 -4.0038 -3.4309 -3.2140 -2.2157
-0.8661 -0.9310 -1.7810 -1.4807 -1.0645 -0.7354
0.0071 0.6596 1.0777 0.2879 -0.4342 -0.4685
-0.8235 -1.0561 -0.4768 0.2416 -0.3489 -1.1711
-1.1544 -1.1266 -0.7920 0.4650 1.4920 1.5745
0.8904 0.1452 0.2175 0.8265 1.8721 2.9909
4.0986 4.6065 4.3544 4.4054 4.6306 5.3036
5.5993 5.3916 5.1441 4.1412 3.9058 4.3924
4.5435 4.8123 5.2943 5.2118 4.2413 4.0003
4.3905 4.7363 5.2415 5.0811 4.3507 3.8872
3.2643 2.3513 2.3504 3.1179 3.8112 4.1801
3.9957 3.7130 3.4395 2.6896 1.9879 2.3365
2.8389 2.9427 3.6444 3.7667 2.7350 1.6960
1.0165 0.8413 1.2705 1.8684 2.0389 1.9833
1.6200 1.0629 0.7255 0.7143 0.9479 1.3641
1.4957 0.6040 -0.4619 -1.2294 -2.1341 -3.4040
-4.5034 -4.9066 -5.1142 -5.0966 -4.9186 -4.7703
-5.1392 -6.2960 -7.4334 -8.3956 -9.0259 -8.9434
-8.3492 -7.4788 -6.7095 -6.1542 -5.7853 -5.8558
-6.1079 -6.2590 -6.2349 -6.1199 -6.1830 -6.3822
-6.8003 -6.9013 -6.3396 -5.5462 -4.5794 -4.1400
-4.2855 -4.4598 -4.5960 -4.5135 -4.2976 -3.5180
-2.5420 -2.0247 -1.6224 -1.2619 -0.9161 -0.7372
-0.4564 -0.0986 -0.0179 0.1786 0.5651 1.0499
1.5940 2.1548 2.6136 3.0780 3.6379 3.8353
3.8622 4.0319 4.2052 4.5055 4.6798 4.1644
3.3302 2.7972 2.3198 1.6839 1.1528 0.5586
-0.4730 -1.4268 -2.0590 -2.6958 -2.8654 -2.1702
-1.4027 -1.0477 -0.5147 -0.1115 0.0025 0.4558
0.7996 1.2056 2.0306 2.4338 2.4144 2.0427
1.0805 0.2018 -0.2144 -0.5036 -0.4081 -0.2292
-0.8994 -2.1471 -3.3447 -4.1669 -4.9177 -5.2755
-4.9631 -4.6220 -4.4171 -4.4690 -4.4449 -4.5886
-5.1920 -5.8705 -6.2265 -5.5007 -3.6737 -1.4695
-0.3080 -0.4165 -1.1219 -2.2082 -2.4993 -1.9005
-0.9439 0.4984 1.7887 2.4097 2.4237 1.6673
0.7746 0.6319 0.7533 0.9767 1.5801 2.0594
2.0408 1.8369 1.4976 0.9276 0.3288 -0.0457
0.2435 1.1927 2.4088 3.2032 3.2394 2.8463
1.9880 1.4634 2.0177 2.8834 3.9689 4.7271
3.9596 2.6202 1.6107 0.6727 -0.2181 -0.6630
-0.4304 -0.2320 -0.1866 0.0980 0.1462 -0.0865
-0.0661 -0.1578 -0.3469 -0.1894 -0.2097 -0.6222
-1.1756 -1.5297 -1.1867 -0.2820 0.3835 0.3093
-0.0012 -0.1912 -0.6055 -1.0088 -1.0736 -1.3239
-1.7095 -1.8597 -2.4807 -3.3706 -3.1064 -1.9820
-1.3128 -1.2266 -1.3434 -1.8226 -2.8802 -3.7441
-3.9295 -3.9759 -4.2187 -3.9638 -3.6579 -4.6933
-5.7862 -6.2320 -6.5944 -6.2969 -4.7814 -3.5374
-4.5663 -5.9447 -5.7871 -4.6794 -2.8821 -0.7650
0.1119 -0.8113 -2.4742 -4.5691 -5.7815 -4.6460
-1.8226 1.1751 2.7453 1.9018 -0.1930 -1.3183
-1.6567 -1.6956 -0.7483 0.2120 0.1240 -0.1235
0.4642 1.3633 1.7201 1.7804 1.7146 1.5820
1.8601 2.0761 2.0446 2.4534 2.8992 2.7908
2.5674 2.6536 2.7630 3.0763 4.0162 5.0534
5.1850 4.1459 2.9381 2.0418 1.4384 1.2261
1.2771 1.4347 1.3809 1.6099 2.2263 2.6156
2.9280 3.0522 2.7175 2.1262 1.6108 1.7109
2.2133 2.5442 2.7657 2.4469 1.4958 0.8924
1.1343 2.0186 3.0021 3.3738 2.9910 2.2596
1.6887 1.5162 1.5997 1.8694 2.1818 2.1679
1.7702 1.5162 1.5756 1.7684 2.3301 2.7111
2.4719 2.3616 2.2003 1.5459 0.9749 0.8312
0.4957 -0.4850 -1.1783 -0.9596 -0.2199 0.7015
1.5811 1.9630 1.2206 -0.3450 -1.5083 -1.9495
-2.0237 -1.4768 -0.4683 0.2649 0.0712 -0.4627
-0.2088 0.6273 2.3023 4.2924 5.0275 4.5557
3.6046 2.9530 2.7528 2.8214 2.9715 2.6796
2.1012 1.6627 1.5051 1.7211 2.3681 3.1171
3.4128 3.2088 2.9326 2.7639 2.9159 3.3942
3.5296 3.8030 4.2211 3.2227 1.2057 0.3817
1.1668 1.6989 1.8036 2.8455 2.7565 1.1307
1.8500 3.6065 3.4461 2.7287 2.5081 1.0204
-1.3368 -1.4749 -0.8057 0.2056 2.5711 3.1467
1.4356 0.5309 0.3391 -0.5332 -0.2134 0.8563
-0.1207 -1.5648 -2.1961 -3.4956 -4.6580 -3.7218
-2.4556 -2.8134 -2.2693 -1.1208 -2.0357 -3.3863
-3.2166 -3.3436 -2.8579 2.0854 3.9050 -0.4729
-2.7087 -3.6718 -5.4487 -5.4700 -0.4544 2.6814
0.1722 1.8518 2.8881 -0.2069 -3.1638 -4.7757
-3.7691 -5.7388 -6.8687 -4.0620 -3.7542 -5.9020
-6.6963 -4.6376 -3.0794 -2.3147 -2.4918 -2.9098
-1.8948 -1.3007 -1.3025 -1.1820 0.1027 1.0389
1.4069 2.2180 1.9788 1.1168 1.9835 2.8835
2.2606 2.5211 2.3663 1.0677 0.3549 0.3141
-0.4451 -1.6566 -1.4425 -1.6575 -2.7411 -3.1286
-3.5188 -3.0053 -1.6019 -0.6713 0.5968 2.1577
3.4397 3.8596 2.7983 1.4273 1.2623 2.7918
4.5650 4.4853 4.0737 3.3887 0.8591 -0.3783
0.5569 1.8027 1.7842 0.8359 0.2260 -1.1727
-1.6705 -0.5433 0.4012 0.8786 1.4440 2.7037
3.4888 3.2052 3.5018 4.5502 5.2166 5.6968
6.0509 6.1148 5.4697 4.6735 3.9866 2.3246
1.0797 1.2633 1.1075 0.0110 -0.2004 0.3651
0.1574 0.2168 0.8601 0.5199 -0.1818 -0.1392
0.4281 1.2234 1.4978 0.7553 -0.8288 -2.0209
-2.8616 -3.2954 -2.0338 -1.2626 -1.6306 -1.7224
-2.2943 -2.6224 -2.0746 -1.7798 -1.6195 -1.3794
-1.5657 -1.8892 -2.3953 -2.1432 -1.1273 -0.8093
-0.2198 -0.3894 -1.9170 -2.5529 -2.5566 -2.8171
-2.2600 -0.6110 -0.3449 -1.8837 -3.2527 -4.1352
-4.1732 -2.8662 -1.9838 -1.9726 -1.0624 -0.7389
-1.7066 -1.7789 -1.1134 -1.3256 -2.1951 -1.8772
-1.1764 -1.3961 -1.1226 -0.4979 -0.9845 -2.3453
-3.0831 -2.7448 -2.1858 -1.1504 0.5106 0.7637
-0.3153 -0.4895 -0.8918 -2.2340 -1.9300 -0.0122
0.4383 -0.4209 -0.2661 0.1630 -0.3014 -1.1884
-1.8744 -1.9550 -1.8271 -1.3479 -0.4154 0.0824
-0.6100 -2.2368 -3.4872 -4.3103 -4.5578 -3.3732
-1.8521 -1.7631 -3.1183 -4.0888 -3.9757 -3.9516
-3.7959 -2.8449 -1.8206 -1.3432 -1.4795 -1.6417
-1.7548 -1.9420 -1.2570 -0.0168 0.6858 0.7693
0.2669 -0.4617 -0.6703 -0.4543 0.0639 0.7183
0.9574 1.1984 1.4163 0.9889 0.1343 0.1130
1.1966 1.8417 1.8056 1.5822 1.1743 0.8453
0.7776 1.4061 2.5647 2.6806 1.8658 1.4153
0.7581 -0.0909 0.0972 1.2800 2.0549 1.7370
1.0270 -0.0956 -1.2032 -1.0030 0.1195 1.3264
1.9122 1.4932 0.8592 0.4717 0.2511 0.0379
-0.0650 0.2418 0.4254 0.5904 1.2466 1.0789
-0.4561 -1.5842 -1.6547 -1.1912 -0.1521 0.6970
0.6543 -0.1577 -1.3775 -2.9329 -3.8617 -2.5315
-0.4552 0.2011 -0.0613 0.4106 0.8536 -0.0650
-0.8269 -0.5831 0.0064 0.3058 0.6692 1.4515
1.7277 0.9565 -0.1660 -0.5905 -1.1022 -2.0940
-1.8215 -0.7018 -0.2327 -0.0872 0.0018 -0.5451
-1.2440 -1.0466 -0.1771 0.8573 1.1660 0.1399
-1.0725 -1.5638 -1.5916 -0.4181 1.9660 3.0069
1.7185 -0.0473 -0.8640 -0.7861 0.0556 1.3931
1.6434 0.0852 -1.6880 -2.2321 -1.2931 0.0815
0.8676 1.1957 0.9816 0.0806 -0.3625 0.8509
2.8002 3.9320 3.2386 1.4246 0.6219 1.0084
2.1551 4.1832 5.7543 5.6005 4.6300 3.8013
3.5464 4.1387 5.0925 5.0573 3.4834 2.5564
3.1154 3.7021 4.2750 4.8895 3.7299 2.0188
1.9289 4.2972 7.0419 3.6400 1.8890 7.1420
7.5813 4.1433 4.2147 5.2019 4.4483 5.2232
7.5044 7.2866 5.4401 3.6817 2.7242 4.3176
6.9102 6.4607 4.7004 4.7987 4.7820 3.9320
4.0062 4.8923 4.8895 3.5640 3.3823 4.6652
4.8997 4.3000 4.7032 5.4568 4.6402 3.6206
3.2433 2.7122 2.5351 2.6834 3.2832 3.9737
3.3008 1.5628 0.7795 0.9427 0.4607 0.0065
0.2280 -0.6860 -2.8976 -3.9942 -3.1294 -2.1079
-1.9586 -1.8363 -1.5369 -2.1783 -3.3018 -3.2183
-3.1896 -3.7078 -3.0923 -1.8808 -1.6073 -2.1561
-2.8809 -4.6875 -6.5405 -6.4218 -5.5746 -4.8673
-4.0628 -4.4706 -6.6999 -9.0988 -9.9757 -9.2397
-7.9244 -7.0095 -7.2737 -8.4110 -9.4380 -9.9377
-9.2378 -7.7844 -6.8334 -6.5581 -6.5664 -6.0853
-5.2947 -4.9137 -4.7070 -4.5290 -4.8692 -5.4865
-5.4958 -4.8228 -3.8876 -3.9228 -5.4012 -6.9826
-7.3682 -6.1233 -4.5058 -4.6810 -6.7611 -8.0615
-6.8695 -4.4428 -2.3841 -1.4062 -2.0791 -3.8366
-4.5336 -3.7068 -2.5620 -1.1939 0.2707 0.9900
0.7990 0.4894 0.3077 0.4088 1.4340 2.5194
2.1894 0.9520 0.2975 -0.1678 -0.7897 -0.4978
0.4255 0.4579 -0.5747 -1.1346 -0.8352 -0.6767
-0.3828 0.4282 0.9510 0.9751 0.6887 0.3736
0.1112 -0.0176 0.5645 1.3339 1.5517 1.1856
0.8157 0.7684 0.7332 0.9603 1.6657 2.2478
1.7844 0.9473 0.9195 1.2013 1.0651 0.7425
0.5534 0.5488 1.1754 2.0773 2.2395 1.4572
0.1298 -0.7480 -0.5098 0.6637 2.1051 2.9783
3.0376 2.0634 0.2382 -0.9788 -0.6998 0.5386
1.8734 2.5389 2.1264 1.1068 0.1761 -0.4866
-0.6961 -0.3012 0.3448 -0.1993 -1.8613 -2.6278
-2.4341 -2.2617 -1.8464 -0.8935 -0.8583 -1.6212
-1.5294 -1.2448 -1.2282 -1.0298 -0.6433 -0.3253
-0.4514 -0.7814 -0.9325 -1.0465 -1.2189 -1.1058
-0.4032 0.0288 -0.5116 -1.0576 -0.9779 -0.7146
-0.6683 -0.3327 0.1762 -0.1371 -0.6794 -0.2947
0.7295 1.4841 2.2701 3.3667 3.9302 3.7421
3.6373 3.9163 3.9265 3.8579 4.3372 4.9971
5.2437 4.9508 4.1740 3.4288 3.3528 3.8116
4.5429 5.1890 5.3484 4.8377 4.1175 4.1833
4.7691 5.3957 6.0872 6.5368 6.3866 5.6618
5.1353 4.8423 4.4262 4.2018 3.8737 3.3361
3.2211 3.3518 3.0191 2.2766 1.6787 1.2153
0.8139 1.0873 2.0699 2.7892 2.6919 2.5324
2.7744 2.5640 2.1329 2.3415 2.5575 2.0680
1.0725 0.0992 -0.8907 -1.8334 -2.0920 -2.0948
-2.4748 -3.1775 -3.8615 -4.0701 -3.6456 -2.6324
-1.8482 -1.8418 -1.9502 -2.0735 -2.2542 -1.9632
-1.3588 -0.6590 0.0863 0.4950 0.3783 0.0288
-0.2706 -0.4476 0.0112 0.5757 0.4515 0.2031
0.0557 -0.3466 -1.0205 -1.1753 -0.7786 -0.5885
-0.5375 -0.6071 -0.7813 -0.8444 -0.9361 -1.2198
-1.3783 -1.0779 -0.7035 -0.7164 -1.1660 -1.8306
-2.1949 -2.0457 -1.6332 -1.4061 -1.8371 -2.8391
-3.9672 -4.7449 -4.6439 -3.7864 -2.7705 -2.0920
-2.0790 -2.5295 -3.1793 -3.7827 -3.9616 -3.9134
-3.7911 -3.4342 -2.9698 -2.8586 -3.1543 -3.0977
-2.6398 -2.4609 -2.7093 -3.0477 -3.1960 -3.3916
-3.5380 -3.3665 -3.2043 -3.0949 -3.0718 -3.2952
-3.7058 -4.1470 -4.0997 -3.5389 -3.1459 -3.1237
-3.1153 -2.9346 -2.8002 -2.7075 -2.4452 -2.3775
-2.6083 -2.6648 -2.7622 -2.9550 -2.5490 -1.8056
-1.2837 -0.6701 -0.2641 -0.2678 -0.0741 0.3709
0.9307 1.4498 1.5796 1.5379 1.8503 2.2850
2.3832 2.3397 2.5992 2.8217 2.6752 2.7123
2.6697 2.1293 1.8160 2.1237 2.2535 1.9365
1.7882 1.6417 1.4285 1.4415 1.8327 2.4426
2.6771 2.6864 2.6688 2.3035 1.6686 1.1773
1.2088 2.0375 3.4566 4.5662 4.7581 4.1324
3.0590 2.1209 1.9235 2.6150 3.5781 3.9414
3.4622 2.4454 1.6899 1.6287 1.4962 0.9521
0.5952 0.7899 1.2376 1.5527 1.4480 0.9484
0.4868 0.0789 0.0669 0.6814 0.9975 0.5099
-0.3605 -1.1326 -1.5543 -1.4051 -0.9324 -0.9259
-1.2892 -1.7101 -2.1244 -2.0660 -1.9047 -2.1967
-2.5740 -2.7584 -3.0337 -3.4944 -3.4990 -3.1783
-3.1533 -2.8103 -1.8611 -0.8693 -0.3512 -0.2362
-0.0814 0.0038 0.2245 0.5971 0.7148 0.8381
0.9382 0.7167 0.4562 0.3589 0.2958 0.3079
0.7213 1.2608 1.3961 1.2673 1.1060 0.9206
0.4682 0.2903 0.9743 1.7650 2.0793 2.2433
2.2980 1.9504 1.4230 1.1097 1.3525 1.9374
2.0116 1.5973 1.2589 0.6703 -0.0110 -0.1463
-0.0063 0.1457 0.2115 0.1512 0.0020 -0.3919
-0.8888 -1.1910 -1.2651 -1.1826 -1.0139 -0.7599
-0.4197 -0.2214 -0.2937 -0.5217 -1.0167 -1.6192
-1.9205 -1.7962 -1.2540 -0.7238 -0.6561 -0.9694
-1.4978 -2.0029 -2.0150 -1.6257 -1.1891 -0.7497
-0.6450 -1.0417 -1.5617 -1.8620 -1.9028 -1.5293
-0.6737 -0.1834 -0.3409 -0.5236 -0.9379 -1.6433
-1.9501 -1.9158 -1.9112 -1.6729 -1.0992 -0.4068
0.2616 0.6268 0.4831 0.2458 0.2402 0.2013
0.4052 1.0467 1.4721 1.4527 1.3025 1.1282
1.0745 1.5843 2.4046 2.8014 2.7559 2.6744
2.5919 2.4408 2.6123 2.8579 2.6243 1.9764
1.2423 0.6194 0.1967 0.2013 0.2532 0.2124
0.3756 0.6305 0.6286 0.4442 0.4636 0.3348
0.1568 0.2254 0.2097 0.1179 -0.0045 -0.0295
0.2922 0.6648 0.9976 1.5704 2.1210 2.4167
2.6568 2.8329 2.7522 2.5391 2.3694 2.4009
2.5604 2.5455 2.6809 2.9960 3.0266 2.8023
2.5548 2.4056 2.3055 2.4547 3.0183 3.5420
3.7413 3.7404 3.7524 3.8136 4.2075 5.1048
5.7286 5.9075 5.8621 5.5683 5.3087 5.2309
5.2541 5.1994 5.0371 4.6432 3.9897 3.2333
2.3991 1.6084 1.2886 1.3730 1.2200 0.8669
0.4238 -0.0619 -0.2121 0.0030 0.1735 0.0169
-0.3641 -0.7469 -0.9258 -0.9341 -0.8702 -0.8025
-0.9508 -1.2651 -1.5339 -1.6998 -1.7341 -1.9269
-2.1762 -2.1151 -2.1104 -2.3792 -2.7222 -2.9771
-3.1013 -3.0596 -2.7074 -2.1651 -2.1512 -3.0735
-4.1274 -4.4620 -4.2683 -4.0737 -3.6371 -2.9252
-2.6879 -2.9456 -3.0475 -2.8056 -2.7917 -3.0383
-3.0930 -3.1069 -3.0457 -2.9511 -2.9178 -2.8723
-2.8380 -2.7398 -2.6378 -2.5016 -2.5516 -2.5081
-1.6914 -1.1056 -1.2419 -1.2586 -0.8646 -0.4011
-0.8665 -0.8785 0.2922 0.2579 -0.4234 -0.3965
-0.4243 -1.0648 -1.2947 -0.8868 -1.2873 -1.7257
-1.6256 -1.6599 -1.4653 -1.2613 -1.2836 -1.2734
-1.4449 -1.8370 -2.1178 -1.8397 -1.5496 -1.6219
-1.5338 -1.6905 -1.8907 -1.7350 -1.3892 -0.7079
-0.1332 0.2950 0.6519 0.7807 0.9309 1.0282
1.1209 1.1802 1.0041 0.4832 -0.0878 -0.1184
-0.0526 -0.2639 -0.3983 -0.3566 -0.3631 -0.5031
-0.5633 -0.4947 -0.2000 0.1643 0.2088 0.0994
0.0651 -0.2065 -0.7487 -0.8989 -0.7534 -0.9230
-1.1195 -1.1047 -1.1797 -1.5718 -2.4024 -2.6193
-1.6840 -1.0453 -0.8711 -0.7153 -1.2669 -2.2346
-2.6990 -2.7787 -2.6480 -2.3597 -2.2800 -2.2661
-2.1345 -2.2179 -2.3180 -1.9509 -1.5746 -1.5412
-1.5551 -1.4801 -1.4615 -1.4949 -1.5681 -1.8434
-2.0167 -1.9102 -1.6803 -1.7146 -1.8480 -1.4763
-1.0583 -0.9211 -0.8887 -0.8303 -0.6625 -0.4271
-0.1100 0.2533 0.6714 0.9161 0.9309 1.0227
1.1626 1.2183 1.3693 1.5000 1.6623 1.8727
1.7336 1.5325 1.2813 1.0217 0.8595 0.7752
0.8327 0.6834 0.3896 0.0633 -0.2602 -0.5559
-0.5132 -0.2203 -0.2899 -0.6282 -0.8701 -0.9322
-1.2446 -1.5347 -1.4494 -1.6070 -1.8508 -1.9352
-2.0492 -2.2327 -2.4199 -2.6100 -2.9316 -3.2681
-3.6018 -3.6491 -3.5907 -3.8558 -3.9438 -3.8585
-4.1607 -4.3656 -4.2460 -4.2775 -4.0365 -3.5082
-3.0716 -2.8816 -2.6248 -2.1984 -2.2624 -2.2262
-1.8823 -1.7748 -1.6107 -1.3456 -1.3706 -1.5866
-1.5356 -1.3076 -1.0258 -0.6022 -0.2963 0.0374
0.5991 0.5314 -0.0322 0.0272 0.2311 0.2441
0.7409 1.2971 1.2581 1.1794 1.3388 1.1831
0.9940 1.2507 1.5881 1.8245 2.2305 2.8692
3.0314 2.6801 2.6513 2.7218 2.4928 2.4576
2.9683 3.3020 3.1213 3.2928 3.4995 3.3892
3.6793 3.9444 3.9611 3.8702 3.7284 3.7590
3.5050 3.1750 3.1584 3.1917 3.1704 3.3855
3.7386 3.6784 3.5291 3.6181 3.5477 3.0657
2.9035 3.1676 3.0685 2.9155 2.9109 3.0082
3.2019 3.2149 3.0091 2.9276 2.8840 2.5883
2.5447 2.7338 2.8747 2.9239 2.7959 2.5855
2.4965 2.5957 2.6560 2.8117 2.9795 3.0323
3.0499 3.0193 3.2501 3.5709 3.7396 3.5940
3.3929 3.5542 3.4355 3.2483 3.5495 3.8730
3.9602 3.8035 3.7118 3.7525 3.5644 3.5718
3.8276 3.8137 3.6395 3.4402 3.1361 2.6940
2.4586 2.3946 2.1388 1.7736 1.4056 1.2471
1.3184 1.3555 1.4380 1.6169 1.6975 1.6188
1.2489 0.9820 1.2220 1.5770 1.8514 2.0312
2.1008 1.9478 1.5687 1.2693 1.1840 0.9857
0.7882 0.9792 1.0135 0.6251 0.3007 0.1181
-0.5095 -1.0489 -0.8960 -0.9118 -1.1453 -1.2251
-1.2584 -1.4086 -1.4892 -1.1741 -0.7375 -0.3788
-0.2657 -0.4205 -0.7449 -1.3039 -1.7108 -1.8526
-1.8887 -1.9360 -2.1705 -2.4477 -2.8648 -3.2615
-3.3477 -3.3199 -3.0372 -2.7100 -2.7183 -2.9751
-3.2578 -3.4135 -3.7491 -3.8891 -3.4803 -3.2838
-3.5359 -3.7407 -3.6684 -3.4432 -3.2374 -3.0233
-2.6627 -2.4486 -2.5830 -2.6340 -2.3893 -2.0825
-1.6774 -1.0220 -0.7106 -0.9878 -1.0517 -0.6587
-0.2249 -0.0849 -0.0173 -0.0228 -0.5484 -1.1018
-1.1982 -0.8181 -0.4279 -0.4965 -0.6300 -0.7291
-0.9738 -1.2046 -1.0953 -0.7653 -0.6244 -0.7968
-0.9386 -0.9683 -1.1462 -1.1602 -0.9683 -0.7690
-0.8821 -1.0545 -0.7477 -0.4436 -0.4566 -0.5790
-0.6726 -0.9896 -1.3641 -1.5439 -1.7404 -1.9638
-2.2947 -2.4059 -2.0954 -1.6310 -1.0897 -0.7069
-0.7699 -1.0267 -1.0906 -1.0962 -1.0341 -0.7708
-0.5975 -0.5011 -0.2119 0.0004 0.0337 0.1505
0.3545 0.5306 0.2136 -0.2443 -0.1859 -0.2110
-0.5113 -0.5308 -0.3491 -0.5595 -0.9655 -1.0443
-0.8709 -0.3064 0.2349 0.2238 0.3193 0.5834
0.6483 0.6446 0.7058 1.1720 1.6948 1.8088
1.6957 1.5762 1.6457 1.5447 1.1804 0.7086
0.0903 -0.1461 -0.1322 -0.1006 -0.1794 -0.9154
-1.6885 -1.9897 -2.0324 -2.2122 -2.4569 -2.0509
-1.7126 -2.0083 -2.3364 -2.4106 -2.1399 -1.9007
-1.6588 -1.2695 -1.0637 -0.7523 -0.7106 -0.9794
-0.9302 -0.9859 -0.7912 -0.1822 0.1608 0.0857
-0.4102 -0.7662 -0.9367 -1.0303 -0.7041 -0.3815
-0.4000 -0.8042 -1.3038 -1.3307 -0.9237 -0.6021
-0.3731 0.1348 0.3415 0.0023 -0.5938 -0.9970
-1.2704 -1.1388 0.6252 1.3741 0.7633 0.9144
-0.0089 -0.4668 0.1320 0.3035 1.1489 1.5132
1.6402 2.1147 2.1741 1.8700 1.2963 2.3187
3.2095 2.3326 2.5615 2.9267 2.3140 2.2603
2.8405 3.5654 3.7665 4.0641 4.7621 4.3589
3.7675 4.1401 4.1957 3.9835 4.6128 5.1644
4.3079 3.9000 4.6453 4.4432 3.9668 4.4516
4.3477 3.0751 2.7951 3.5302 3.5487 3.1715
3.0816 3.1946 3.0055 2.5022 2.7979 3.3374
2.6533 2.0870 2.2659 1.9173 1.2796 1.4928
1.4705 0.5204 0.2387 0.3267 0.3999 0.5325
0.2414 -0.7050 -1.4854 -1.4725 -1.8942 -2.2539
-1.9619 -1.8840 -2.2020 -3.2216 -4.2097 -4.1179
-4.2783 -4.5415 -3.5794 -2.8184 -2.9407 -3.4023
-3.6674 -3.5108 -3.6220 -3.6146 -3.4756 -3.4357
-3.2290 -3.2948 -2.7702 -2.0175 -2.3595 -2.5366
-2.3289 -2.2474 -1.9072 -1.5957 -1.3557 -1.1536
-1.2861 -1.3946 -1.0192 -0.7281 -0.6493 -0.2952
0.0106 -0.1284 -0.0079 0.8124 1.1610 0.8746
1.0516 1.3491 0.9014 0.6521 0.9413 0.9635
0.8662 0.8542 0.4611 -0.4704 -0.3212 0.5807
0.9144 1.2203 1.3213 0.8152 -0.3119 -1.0173
-1.0562 -0.8050 -0.2739 -0.1265 -0.0459 -0.1497
-0.8634 -1.1647 -0.4315 -0.3379 -0.9107 -0.3546
-0.1627 -0.9923 -1.0831 -0.8319 -1.2268 -1.5345
-1.6300 -1.8784 -1.7598 -1.5540 -1.6875 -2.0879
-2.4346 -2.5421 -2.8341 -3.2568 -3.5061 -3.3189
-3.0621 -2.9342 -2.4967 -2.2483 -2.0471 -1.6782
-1.7329 -1.2425 -0.0774 0.5668 1.1860 1.6727
1.3529 1.0637 1.0247 0.8366 1.1054 1.9535
2.6256 2.7961 2.6580 2.5356 2.5347 2.4541
2.5523 3.4533 4.1235 3.5710 3.1530 3.3727
3.1437 2.7257 2.8758 3.1483 3.0121 2.8684
2.8174 2.4494 2.6033 3.2420 3.3884 3.4338
3.5933 3.5970 3.2883 2.9444 2.9750 3.3347
3.4033 2.8397 2.2390 1.7987 1.4678 1.2963
1.4002 1.5744 1.2936 0.5650 -0.1135 -0.4222
-0.7939 -0.8541 -0.0598 0.6401 0.3907 -0.0913
0.1052 0.3314 0.2888 0.8523 1.7320 1.4613
0.6178 0.7689 1.0915 0.8125 0.7281 0.9070
0.7448 0.4046 0.2248 -0.1478 -0.7670 -0.9292
-0.9144 -1.4233 -1.9989 -2.2686 -2.4763 -2.7219
-3.0139 -3.0018 -2.3242 -1.7245 -1.7736 -1.7931
-1.3046 -1.1785 -1.4084 -0.7336 0.1164 0.2165
0.2702 0.5354 0.5659 0.1970 0.1405 0.5075
0.4844 0.0283 -0.1636 0.2999 0.3527 -0.0264
0.4047 0.7736 0.4000 0.1553 0.2610 0.1535
-0.0393 0.3555 0.9692 1.2954 1.2269 0.6141
0.3546 0.9553 1.3307 1.2472 1.5216 1.6338
0.8746 0.4881 0.9571 1.2936 1.2732 1.1175
0.7671 0.2517 0.0932 0.0700 -0.3610 -0.7308
-0.9144 -1.3806 -1.9794 -2.1741 -2.0777 -2.3094
-2.7293 -2.8498 -3.0194 -3.6711 -4.0214 -3.6386
-3.6442 -3.9176 -3.7239 -3.7128 -4.0548 -4.3023
-4.4274 -4.3672 -4.2031 -3.9881 -3.5014 -3.3448
-4.0094 -4.2875 -3.6720 -3.6989 -4.4608 -4.6063
-4.4552 -5.0846 -5.5499 -4.9882 -4.8631 -5.1263
-4.6184 -4.1799 -4.6795 -4.8909 -4.0233 -3.5774
-3.4690 -2.5439 -1.8366 -1.9701 -2.0869 -1.6448
-1.0321 -0.7141 -0.1700 0.5567 0.6225 0.5391
0.7959 0.7097 0.6068 1.0786 1.5152 1.6931
1.9425 1.8489 1.3437 1.3715 2.0120 2.4606
2.6367 2.8703 2.9649 2.6127 2.3448 2.4931
2.6405 2.9640 3.3727 3.3533 2.9148 2.3105
2.0658 2.3077 2.6266 2.6571 2.2743 1.6320
0.8978 0.3769 0.3704 0.5864 0.5855 0.5363
0.5855 0.3741 0.0988 0.1822 0.3083 0.2684
0.2972 0.4622 0.3852 0.0089 -0.3600 -0.5815
-0.3563 0.1405 0.1498 -0.6112 -1.5456 -2.2278
-2.7385 -2.6152 -1.8162 -1.3361 -1.3509 -1.3481
-1.5270 -2.0238 -2.3696 -2.4743 -2.4400 -1.8450
-1.0673 -0.9264 -1.2100 -1.9071 -2.6718 -2.5680
-1.9200 -1.4139 -0.9912 -0.6816 -0.7706 -1.0904
-1.2860 -1.1284 -0.5519 -0.0662 -0.1820 -0.4202
-0.1329 0.0794 0.0859 0.4492 0.6179 0.5623
0.5753 0.4603 0.2944 0.3778 1.1824 1.6913
1.3984 1.2316 1.1036 0.9201 0.4835 0.2203
0.5206 0.6643 0.8654 1.2056 1.4596 1.4614
1.2334 1.4095 1.6116 1.6552 1.7720 1.6468
1.3530 1.0888 1.0731 1.4410 2.0334 2.4635
2.6053 2.7647 2.7471 2.4023 2.3939 2.6739
2.6099 2.4764 2.3161 1.9434 1.6524 1.9722
2.1381 1.9963 2.7842 2.6183 1.4522 1.3447
1.6301 1.2001 1.1176 2.1465 1.6376 0.7783
1.0805 0.6152 0.0646 0.4057 1.2103 1.2835
1.0045 1.2065 1.1667 0.9322 1.1092 1.5996
1.4179 1.0156 1.2668 0.9961 0.5494 1.0777
1.2316 0.7968 0.8812 0.9034 0.6689 0.6986
0.7644 0.6912 0.6031 0.5123 0.3176 0.0553
0.0664 0.2889 0.4048 0.3538 0.1007 -0.4239
-0.6677 -0.5676 -0.9652 -1.3898 -1.3610 -0.7150
0.4242 0.7607 0.5021 0.0266 -1.5418 -3.3030
-3.7423 -3.2029 -2.4706 -1.0922 0.3825 0.2870
-0.5324 -0.9235 -1.3518 -1.6280 -1.0468 -0.0717
0.4261 0.6411 0.4140 -0.5426 -1.2822 -1.1228
-0.5018 -0.1236 -0.1134 -0.3451 -0.9421 -1.4713
-1.7355 -1.8996 -1.6716 -1.5446 -1.3314 -0.8318
-0.8985 -0.8169 -0.1551 0.2815 0.2435 0.2203
0.4502 0.5522 0.7468 1.1454 1.6849 2.3068
2.3921 1.7887 1.1111 0.5688 0.1768 0.6662
1.4318 1.4995 1.6107 1.7729 1.1816 0.5067
0.8701 1.5301 1.7201 1.9871 2.3921 2.3856
2.0028 1.7201 1.6867 1.8341 2.1715 2.7824
3.1791 3.0781 2.7564 2.3133 2.0455 2.0890
2.4496 2.9298 3.1096 3.1161 3.0011 2.3690
1.5950 1.5347 1.9148 1.9676 1.8517 1.9166
1.6524 1.1185 1.0490 1.0935 1.0805 1.1389
1.1148 1.0564 0.8859 0.8099 0.9053 0.9276
0.7200 0.0785 -0.8382 -1.0347 -0.7817 0.3742
2.6749 2.9993 0.0952 -4.8046 -7.6067 -6.5046
-3.6718 -0.2802 0.9637 -0.6037 -3.6737 -6.5861
-7.5112 -6.6955 -4.6961 -2.5920 -1.5065 -1.9644
-3.1963 -3.7960 -3.9342 -3.6774 -2.9108 -2.2759
-2.7023 -3.7998 -4.0602 -3.6783 -3.1787 -2.8561
-2.9646 -3.4688 -3.9898 -4.0528 -4.2215 -4.0185
-3.3140 -3.0628 -3.0137 -2.9664 -2.6596 -1.9913
-2.0237 -2.6911 -2.8135 -2.2870 -1.5603 -0.5583
0.5207 0.4363 -0.6148 -1.4453 -1.7716 -1.0838
0.0007 0.5476 0.7969 0.3158 -1.0968 -2.2814
-2.4918 -1.9969 -1.1932 -0.2755 0.2315 -0.3942
-1.6354 -2.4909 -2.7124 -2.0803 -1.3628 -1.3081
-1.4323 -2.1266 -2.8329 -2.7857 -2.5614 -2.1656
-2.1452 -2.3806 -2.5308 -3.1583 -3.9323 -4.0027
-3.4762 -3.4382 -3.3363 -2.8172 -3.0832 -3.3919
-2.9785 -2.7801 -2.7671 -2.0450 -1.2887 -1.4342
-1.7744 -1.7595 -1.7447 -1.7994 -1.5121 -1.0467
-0.9744 -1.2136 -1.1802 -1.0745 -1.5677 -1.9310
-1.4333 -1.2034 -1.4305 -1.2748 -1.2896 -1.5037
-1.4203 -1.2850 -1.1811 -1.0412 -0.6963 -0.6370
-1.2534 -1.5723 -1.2442 -0.8493 -0.4618 -0.1597
-0.3246 -0.6101 -0.5758 -0.2820 0.1907 0.7256
1.0991 1.1325 1.1464 1.1538 1.2261 1.5867
1.6599 1.9028 3.0791 4.2146 4.5204 4.1552
3.8067 3.8178 3.7817 4.1617 5.2740 6.2547
6.3678 6.0035 5.5327 4.9116 4.9682 5.7607
6.4550 6.7423 6.8647 6.9286 6.2853 5.4131
5.4001 5.6837 5.8506 6.4809 7.0083 6.5912
5.7913 5.5336 5.6708 5.7653 6.1222 6.7191
6.9092 6.3409 5.5855 5.2073 5.0358 4.6456
4.3592 4.4426 3.8985 2.9363 2.8863 3.2561
2.9030 2.4460 2.3987 2.1939 1.9668 1.8954
1.4282 0.5587 0.4781 0.9749 0.8099 0.2519
-0.3404 -0.8242 -1.0930 -1.1125 -0.8298 -0.6147
-0.7408 -1.1570 -1.6557 -2.1321 -2.3463 -2.0070
-1.4119 -1.0606 -0.9512 -0.9419 -1.2497 -2.0496
-2.7356 -2.6948 -2.1117 -1.4175 -1.2080 -1.5315
-2.0042 -2.3490 -2.4797 -2.4834 -2.2563 -1.9375
-1.6696 -1.8151 -2.3194 -2.3703 -2.2619 -2.5261
-2.8403 -2.7699 -2.4297 -2.3490 -2.3796 -2.3481
-2.4473 -2.5335 -2.5724 -2.5604 -2.3407 -1.8874
-1.5342 -1.7892 -2.2730 -2.2915 -1.9810 -1.7141
-1.4499 -1.2673 -1.4777 -1.6334 -1.2311 -0.8233
-0.8770 -1.1903 -1.2988 -1.3053 -1.5203 -1.2691
-0.7139 -0.6305 -0.8909 -1.2265 -1.3387 -1.5009
-1.7548 -1.3859 -0.3348 0.3873 -0.0456 -0.8882
-1.5861 -2.2165 -1.9912 -0.2708 1.4662 1.4292
0.4930 -0.5165 -1.7660 -2.6150 -2.2888 -1.0189
-0.0715 -0.1596 -0.8548 -1.4962 -2.4232 -3.2389
-2.6067 -1.1180 -0.5841 -1.4684 -2.8838 -3.8821
-3.6810 -2.5780 -1.2867 -0.4988 -0.6861 -1.5722
-2.5770 -2.6929 -1.6186 -0.3635 -0.1336 -0.5646
-1.2348 -2.5807 -3.7533 -3.5410 -2.1460 -0.6722
0.5579 1.3115 0.5560 -1.3303 -2.3101 -1.3859
0.3438 0.7340 -0.1336 -0.5721 -0.6397 -0.5526
-0.3746 0.0555 0.8591 1.8649 3.0244 3.3127
2.8038 2.4813 2.5193 2.7390 2.6509 2.3070
2.0484 2.0002 2.4043 3.3507 4.1757 3.9922
3.2339 2.6379 2.4498 2.9049 3.5667 3.9449
3.8828 3.5398 3.1755 2.6639 2.6704 3.4712
4.2934 5.1212 5.6523 5.2778 4.4807 4.2916
4.7309 4.8422 4.6549 4.4714 4.4047 4.6586
4.8440 4.7968 4.5595 4.2508 3.8606 3.2284
2.8326 3.2256 4.0932 4.6512 4.5456 3.6038
2.2597 1.5367 1.9084 2.8567 3.3758 3.4305
3.2302 2.4702 1.6183 1.5201 2.0920 2.5721
2.2996 1.3829 0.5329 0.1018 0.3586 1.0668
1.7333 1.6776 0.7609 0.0156 -0.4423 -0.3848
0.0972 0.3113 -0.0298 -0.9261 -1.7511 -2.0616
-1.8762 -2.0653 -2.1812 -1.6056 -1.2209 -0.8464
-0.6239 -1.2774 -2.4676 -2.8829 -1.9402 -0.9382
-0.8121 -1.0151 -1.8326 -3.2870 -3.7041 -2.6280
-0.9901 -0.0946 0.0713 -0.0900 -0.8937 -1.6482
-2.0866 -2.1422 -2.0857 -1.9800 -1.3173 -0.7259
-0.7463 -1.1059 -1.2765 -1.2561 -1.4081 -1.4915
-1.0735 -0.3449 0.0296 -0.0900 -0.2485 -0.4116
-0.6795 -0.7592 -0.6387 -0.7518 -0.8658 -0.6758
-0.7064 -0.6610 -0.2791 -0.1336 -0.1465 -0.1197
-0.1929 -0.5090 -0.7833 -0.6480 -0.8584 -1.5657
-1.5499 -1.0846 -1.2162 -1.4489 -1.1004 -0.7166
-0.8213 -1.0633 -1.4072 -1.9179 -2.1153 -1.9114
-1.7168 -1.7529 -1.6750 -1.5091 -1.7353 -2.0365
-2.0644 -2.0505 -1.9133 -1.3654 -0.8890 -1.0642
-1.5620 -2.0560 -2.3814 -2.1969 -1.8706 -1.9392
-1.9114 -1.6389 -1.8132 -2.2887 -2.4425 -2.1116
-1.6046 -1.3274 -1.1754 -1.0966 -1.2839 -1.6268
-1.9299 -2.3971 -3.0599 -3.2666 -2.7836 -2.1014
-1.6037 -1.3627 -1.5805 -2.2395 -2.6845 -2.5343
-1.9021 -1.2876 -1.1374 -1.2783 -1.6426 -2.1941
-2.4750 -2.2553 -1.6806 -1.1374 -0.8955 -0.8927
-1.2579 -1.7520 -1.8873 -1.4081 -0.8945 -1.0725
-1.3701 -1.6899 -2.2571 -2.5158 -2.1663 -1.6240
-1.2857 -0.9770 -0.4932 0.0611 0.2613 0.0787
-0.0825 -0.1224 -0.2559 -0.2411 0.1538 0.3540
0.2094 -0.0575 -0.2058 -0.0890 0.2002 0.5552
0.5950 0.4291 0.1659 0.0046 0.3865 0.9362
1.1280 1.2152 1.4830 1.3459 1.0038 1.1484
1.5915 1.8288 1.7287 1.5943 1.3422 1.1132
0.8620 0.8787 1.3134 1.1827 1.0511 1.3579
1.2180 0.7359 0.6442 0.7693 0.7285 0.9668
1.4664 1.8288 1.8816 1.6814 1.7120 1.8816
1.6842 1.6267 1.8955 1.7584 1.2393 1.1318
1.3774 1.4228 1.5220 1.3811 0.9445 0.7072
0.5496 0.5153 0.5394 0.5089 0.5172 0.5005
0.3522 0.2048 0.2122 0.3133 0.2827 0.3022
0.5886 0.5784 0.3949 0.5098 0.7211 0.9056
1.1624 1.4719 1.6712 1.8501 1.9243 1.7741
1.5582 1.5285 1.8362 2.1616 2.5120 2.7567
2.4100 2.0151 2.0022 1.9669 1.7704 1.7046
1.7380 1.4951 1.1948 1.0011 0.7684 0.6183
0.7944 1.1661 1.3904 1.6379 1.7649 1.4720
0.9362 0.5969 0.6414 0.7777 1.0762 1.2894
1.0307 0.4922 -0.0871 -0.3179 -0.1845 -0.1010
0.0083 0.1622 -0.1891 -0.8129 -0.8509 -0.3124
0.1928 0.4431 0.5293 0.3198 0.1733 0.2113
0.1409 0.1984 0.2345 0.3828 0.4802 0.2725
0.3782 0.6155 0.5923 0.5330 0.6396 0.3773
-0.1038 -0.0213 0.0167 -0.1001 0.2623 0.5747
0.3328 0.1400 0.2753 0.3170 0.2697 0.5247
1.0011 1.0558 0.8528 0.9510 0.8000 0.4116
0.4496 0.5951 0.4672 0.2642 0.2586 0.1057
-0.3003 -0.2910 -0.2540 -0.5163 -0.6349 -0.7953
-0.8889 -0.9501 -1.0956 -1.0845 -1.0863 -1.1373
-1.0752 -0.7258 -0.2382 -0.0445 -0.1307 -0.2113
-0.2456 -0.1919 0.0955 0.6961 1.0289 0.7406
0.5460 0.5506 0.7379 0.8964 1.0196 1.3886
1.3774 1.1420 0.9937 1.1133 1.5119 1.6796
1.8354 2.0133 1.9401 2.0337 2.3702 2.3489
2.1691 2.3229 2.3424 2.1032 2.0513 1.9716
1.8558 1.8613 1.7186 1.4303 1.3107 1.2922
1.0901 0.9288 0.7434 0.4950 0.5145 0.5590
0.4802 0.3986 0.2670 0.0084 -0.2373 -0.2234
-0.1381 -0.1381 -0.1177 -0.1223 -0.2623 -0.4866
-0.6711 -0.8407 -1.0641 -1.3181 -1.4580 -1.4877
-1.5257 -1.6008 -1.8761 -2.2181 -2.4619 -2.6769
-2.7502 -2.5981 -2.3293 -2.2746 -2.3840 -2.4452
-2.6019 -2.7103 -2.4406 -2.0995 -2.0253 -1.8751
-1.8288 -2.1477 -2.4165 -2.5657 -2.7205 -2.7919
-2.9012 -2.9930 -3.0690 -3.4565 -3.8032 -3.9858
-4.2129 -4.3602 -4.2611 -4.1192 -4.4631 -4.8330
-4.9396 -5.0971 -5.2899 -5.4216 -5.2297 -4.9757
-4.9887 -4.9192 -4.8738 -4.9646 -4.6949 -4.4121
-4.4724 -4.6086 -4.6772 -4.6309 -4.7301 -4.6745
-4.2861 -4.0599 -3.9357 -3.6836 -3.5427 -3.5946
-3.5074 -3.3258 -3.2766 -3.1302 -2.7789 -2.4628
-2.2774 -2.1829 -2.0410 -1.7694 -1.5785 -1.4395
-1.0798 -0.6618 -0.4708 -0.4096 -0.2446 -0.1223
-0.0472 0.1206 0.2476 0.3412 0.7602 1.5694
1.4971 1.4044 2.2470 2.0338 1.7520 2.6539
3.2165 2.7141 2.4555 2.6696 1.8762 1.7492
2.6669 2.9542 2.9264 2.9663 3.0515 2.6075
2.1181 2.4333 2.9477 2.9969 3.1748 3.2972
2.9635 3.0339 3.1887 3.4131 3.6809 3.8302
4.5717 5.4644 5.8472 5.5747 4.5597 3.2675
1.9930 1.4906 2.8421 5.4078 7.9087 8.6335
7.6445 6.6842 5.4430 4.1731 4.1240 3.7570
1.6306 1.4164 2.9746 1.9504 0.7954 1.8280
3.2768 4.3409 4.5550 3.7245 3.4029 3.8747
3.1220 2.0950 1.9124 1.4220 0.5989 0.0084
0.4923 1.5462 1.4990 1.1578 1.1745 0.3959
-0.4587 0.9919 2.8801 2.0505 1.1430 0.6795
-0.9769 -1.6155 -0.4226 0.2152 -0.0490 0.2189
-0.0991 -0.7498 -0.3772 0.2133 0.1957 -0.1742
-0.4179 -1.1882 -1.8945 -1.6026 -1.4765 -1.7870
-1.1150 -0.3753 -1.1632 -1.1196 -0.1621 -0.8221
-1.2605 -0.2696 -0.3419 -1.9121 -2.4794 -1.8584
-1.8760 -1.6378 -0.5931 -0.9120 -2.0326 -1.9288
-1.5293 -1.8964 -2.1967 -1.6146 -1.6220 -3.5065
-5.2315 -4.9441 -4.1572 -4.1312 -3.1589 -1.9678
-2.5341 -3.0170 -2.6463 -2.8428 -3.0337 -1.9094
-1.1595 -1.5720 -1.6999 -2.2644 -3.3962 -3.5343
-2.2736 -1.3727 -1.2744 -0.8044 -0.7841 -1.3013
-0.8740 0.0363 0.3134 0.5860 1.0531 0.8974
-0.5783 -1.8565 -0.8730 -0.1009 -1.2929 -0.6765
1.2858 0.7547 0.3097 1.2988 1.5426 1.0114
1.0059 1.4499 0.9512 0.9994 1.7585 1.8002
2.0570 2.6465 3.2064 3.0553 2.9830 4.1194
4.1129 3.5169 4.9481 6.1476 5.1075 4.6608
5.4690 4.3901 2.5362 2.3787 1.9328 0.6648
0.8983 2.0079 1.7678 0.8529 1.4740 2.2758
1.4489 1.5435 2.5399 1.9671 1.2256 1.4295
0.6611 -0.9082 -0.3233 1.5370 1.1876 -0.0360
0.1744 -0.2353 -1.4774 -1.0538 0.4126 0.8520
0.1846 -0.4142 -0.9592 -1.6396 -1.4551 -0.6394
-0.6033 -1.1659 -1.4190 -1.5951 -1.2605 -0.3002
0.0827 -0.4383 -1.4653 -2.4859 -3.5871 -4.3787
-3.7205 -2.3719 -1.7990 -1.7100 -1.9937 -3.5509
-5.1109 -4.6095 -2.9252 -1.7406 -0.7377 -0.1185
-1.2225 -3.4276 -4.9079 -4.4130 -2.6425 -1.2206
-0.3845 -0.7163 -2.0178 -2.8946 -3.1032 -2.8807
-2.4284 -1.4838 -0.6737 -1.3263 -2.5952 -2.8854
-2.2921 -1.7944 -1.1149 -0.6329 -1.5858 -2.6175
-2.1957 -1.1047 -0.6274 -0.5254 -0.3965 -1.2002
-2.8066 -3.3080 -2.3468 -1.8046 -2.0446 -1.8342
-1.6108 -2.1920 -2.4599 -2.0159 -1.5506 -0.8850
-0.3567 -0.8239 -1.8027 -2.4460 -2.7954 -2.5619
-1.8110 -1.0463 -1.0083 -1.7471 -2.2940 -3.0179
-3.6232 -3.4962 -2.8316 -2.2346 -2.2615 -1.8620
-1.2057 -1.2271 -1.6535 -1.6572 -1.2725 -1.7536
-2.2365 -2.0214 -2.7991 -3.8883 -3.0262 -1.2067
-0.5967 -0.1407 0.8317 0.7899 0.3802 1.1292
2.1238 1.4434 1.0597 1.9356 1.6650 0.8826
0.5406 0.8354 0.7603 0.5851 1.6047 2.1590
2.0042 1.8754 2.2480 3.3576 4.1556 4.2511
4.0991 3.5142 2.4853 1.7725 2.2628 3.4604
4.1733 4.5023 4.4254 3.9026 3.2157 3.1064
4.0083 5.0557 5.5674 5.6869 5.2995 4.1584
3.1518 3.1546 3.8006 4.1297 4.5728 5.1475
5.1762 5.1994 4.6710 3.6903 3.0665 2.8431
2.9822 2.9525 3.1685 3.5300 3.2538 2.8793
2.7449 2.8811 3.4141 3.8683 3.9888 4.0732
4.0889 3.3409 2.3676 2.2193 2.2573 2.4529
2.9108 2.5845 1.8893 2.1535 2.7838 2.6494
2.4214 2.3481 1.7790 1.5593 2.0284 1.6474
0.4591 0.0290 0.1003 0.0614 0.4757 1.2516
1.6261 1.2803 0.6055 0.1819 0.1078 0.3349
0.6361 0.4164 0.0642 -0.2547 -0.9323 -0.8331
0.3979 1.4351 1.3600 0.6834 -0.1017 -1.2474
-1.9213 -1.5895 -0.7830 -0.3131 -0.7005 -1.4838
-2.2457 -2.8529 -2.5618 -0.9462 0.3061 -0.0137
-0.6940 -1.7044 -3.5814 -4.6761 -3.7816 -1.9510
-0.4289 0.2969 -0.3260 -1.9472 -3.2969 -3.4090
-2.5664 -1.5672 -0.4716 0.0966 -0.5559 -1.7118
-2.2068 -1.9287 -1.3559 -0.5364 0.0726 -0.4206
-1.4022 -1.5542 -1.0648 -0.6885 -0.2027 0.5953
0.9059 0.4202 0.0883 0.2589 0.0503 -0.1017
0.4443 0.8697 0.6955 0.3377 0.5091 0.0095
-0.9962 -0.8813 -0.9118 -1.4810 -1.5792 -0.9795
-0.9304 -1.5486 -1.6423 -2.1984 -2.7212 -2.0937
-1.5162 -1.5125 -1.2205 -0.8914 -1.3586 -2.0279
-2.2429 -1.9435 -1.7136 -1.8619 -1.6627 -1.4281
-1.6070 -1.9417 -2.6702 -2.6906 -1.5876 -0.8154
-0.2222 0.1838 -0.0934 -0.9257 -2.0149 -2.3773
-1.4467 -0.2519 0.0272 0.1217 0.1430 -0.4298
-0.6477 -0.1017 0.7529 1.6465 2.2870 2.1016
1.5788 1.6289 1.4806 0.5629 -0.8868 -1.9305
-1.3651 0.0040 1.4667 2.7718 3.3688 3.0165
1.5557 0.1226 -0.2444 0.7557 2.2453 2.6411
1.6641 -0.5707 -3.0150 -3.5564 -1.3512 1.9357
4.3958 5.7556 5.6685 4.0501 2.2351 1.3314
1.1738 1.3082 2.1007 3.0796 2.8710 1.8644
1.0060 0.5268 0.1245 -0.5114 -0.9007 -0.7607
-0.1582 0.5370 0.7502 0.7335 0.3562 -0.7060
-1.2195 -0.4854 0.6510 1.3481 1.2887 0.7233
0.0439 -0.5336 -0.6504 -0.3102 -0.0359 0.0012
-0.1424 -0.3399 -0.8423 -1.5162 -1.9185 -2.2790
-2.3875 -2.4774 -2.4116 -2.0352 -1.9565 -1.7933
-1.6756 -1.8295 -2.1252 -2.5877 -2.6090 -2.1493
-1.8795 -1.7664 -2.1242 -3.0882 -3.5193 -3.1883
-2.4737 -1.5310 -0.9127 -0.9053 -1.3335 -1.7581
-1.9045 -2.1344 -2.4273 -2.4894 -2.5302 -2.6869
-2.5070 -2.2123 -2.4533 -2.4968 -2.1937 -2.1502
-2.2447 -2.0667 -1.5310 -0.8636 0.3108 2.0136
3.1352 3.2715 2.9405 1.8505 -0.0015 -1.8739
-2.9900 -3.3190 -3.2365 -2.4588 -1.5708 -0.8562
-0.0636 0.4795 0.2691 -0.8043 -1.4513 -1.0276
-0.1934 0.3340 0.2478 0.4944 1.3462 1.7003
2.2111 4.0418 4.9520 3.3076 1.0376 -0.9933
-2.7109 -3.0178 -2.2484 -1.8665 -2.1325 -2.5691
-3.1846 -3.9224 -3.7334 -2.3031 -0.8293 0.4184
1.3546 1.4306 0.9606 0.6501 0.8522 1.3073
1.4760 1.7087 2.3028 2.6634 2.9980 3.0212
1.9237 0.4212 -0.5215 -0.7533 -0.9090 -1.1491
-1.1240 -1.7173 -3.1086 -4.1588 -4.5444 -4.0930
-2.6553 -0.7690 0.7002 1.5520 2.1638 2.3640
2.4465 3.0082 3.7952 4.6721 5.3256 4.1484
1.5085 -0.2953 -0.9229 -0.0645 2.2750 4.5729
5.5833 4.9242 3.5208 2.0377 0.8346 0.5463
0.9004 1.3008 0.9644 -0.1860 -1.4039 -2.7879
-3.8575 -3.4330 -2.2150 -1.4855 -0.6689 0.8235
2.0053 2.2992 2.4771 3.0008 3.7044 4.1780
4.5553 5.3330 5.5564 4.4756 2.5661 0.7623
-0.6763 -2.2141 -3.0771 -2.8805 -1.9462 -0.9915
-0.7486 -0.9470 -1.5875 -2.0315 -1.5662 -0.3018
0.7697 1.1349 1.6976 1.9645 1.5178 1.1164
1.0663 1.5697 2.4363 3.0917 2.8590 1.7393
0.5000 -0.8172 -1.9647 -2.5450 -2.8129 -2.8509
-2.7137 -2.4198 -2.3522 -2.7100 -2.9704 -2.8833
-2.4838 -1.5838 -0.1396 1.1813 1.7384 1.5317
0.8782 -0.1693 -1.1240 -0.8802 -0.2462 -0.0339
0.0847 -0.4019 -1.0508 -1.2287 -0.8932 -0.3667
-0.0895 0.2877 0.5853 0.6984 0.8652 0.7716
0.3230 0.0421 -0.0738 -0.3565 -0.6883 -1.0637
-1.1360 -0.7523 -0.2360 0.3183 0.8958 1.6327
2.1694 2.1963 2.3780 2.7209 2.4707 1.9803
1.6902 0.9718 -0.0840 -0.8329 -1.2130 -1.2816
-1.0387 -0.6485 -0.5131 -0.7541 -1.4493 -2.3985
-2.8768 -2.8008 -2.2150 -1.2065 -0.5057 -0.4241
-0.9182 -1.8359 -2.7285 -3.0789 -2.7702 -2.4578
-2.0963 -1.7496 -2.1343 -3.0270 -3.7166 -3.8575
-3.8705 -3.7731 -3.1864 -2.2622 -1.7144 -1.5976
-1.4651 -1.4975 -1.4706 -1.0461 -0.0775 0.9839
1.6643 1.8070 1.3778 1.0923 0.9830 1.0191
1.4223 1.4093 0.8643 0.6539 0.7596 0.6038
0.5093 0.7271 0.3638 -0.4964 -1.0711 -1.4984
-1.5198 -1.0934 -0.7365 -0.5965 -0.9339 -1.5624
-1.8414 -1.4465 -0.5001 0.3221 0.9589 1.2870
0.7716 0.3378 0.7308 1.6643 2.5004 3.1223
3.6136 3.2781 2.7024 2.4169 2.3604 2.4948
2.2547 1.8988 1.4418 0.9236 0.7568 0.7021
0.6539 0.2090 -0.6197 -1.2009 -1.7144 -2.2474
-2.6237 -2.6126 -2.1630 -2.0926 -2.3873 -2.4031
-2.2103 -1.9758 -1.6439 -1.2565 -1.3001 -1.4215
-1.0989 -0.7708 -0.8505 -1.3288 -1.4956 -1.0516
-0.5474 -0.2461 0.0477 0.3786 0.4843 0.4593
0.6261 0.8356 1.1044 1.3120 1.0312 0.5696
0.0755 -0.2304 -0.5353 -0.9154 -0.6327 -0.2174
0.0978 0.2109 -0.0941 -0.7244 -1.5485 -1.6968
-1.2982 -0.7532 -0.4324 -0.4287 -0.6215 -1.1981
-1.1712 -0.4482 0.0347 0.0950 0.2943 0.6632
0.8588 1.3528 1.9646 2.5467 2.8971 2.7859
2.7673 2.8647 3.0204 3.2151 3.4181 3.1780
2.2103 1.4363 1.1740 1.0006 0.7225 0.4852
0.2804 -0.2711 -0.9209 -1.1397 -1.1981 -1.3297
-1.1184 -0.4324 0.3666 0.8171 1.0006 1.0701
0.7244 0.1534 0.0236 0.5427 1.4131 2.4911
3.1011 2.9750 2.5134 1.6411 0.9089 0.6873
1.0757 1.7839 2.1259 2.1649 1.8024 1.2120
0.8162 0.8875 1.1406 1.3315 1.7922 2.0731
1.9591 1.5188 1.0164 0.5789 0.1108 0.0932
0.5659 1.3269 1.7728 1.6550 1.4196 0.9728
0.4880 0.3175 0.5038 0.9793 1.6764 2.3929
2.6061 2.3697 2.0842 1.8859 1.6875 1.8729
2.9732 3.8602 3.9789 4.7603 6.1766 5.4054
2.3651 0.2665 0.4714 1.7765 1.4382 0.4315
0.1757 -0.3527 -0.5937 -0.6539 -0.3777 -0.0264
0.6883 2.0740 2.1825 1.3927 1.4159 2.2140
2.2780 2.3401 2.8397 1.9443 1.0924 0.9450
0.3685 -0.3165 -0.5455 -0.5102 -0.6215 0.2118
1.4623 1.1249 -0.3313 -0.6048 0.3870 0.0385
-0.2210 1.3724 1.7700 1.1351 1.9573 3.3161
3.0065 1.8173 1.9656 2.1426 1.1777 0.7977
1.7478 2.3169 1.8933 1.8432 1.1610 -1.2166
-2.5560 -1.6976 -0.7290 -0.3350 -0.4185 -1.2870
-2.7784 -3.6581 -3.5320 -3.2354 -2.5402 -1.3435
-0.3721 -0.7790 -1.8839 -2.1101 -1.6680 -1.1989
-0.5964 0.3286 0.9339 1.0628 0.5001 -0.4778
-0.7225 -0.7920 -1.5354 -2.0517 -1.7329 -1.6225
-2.1490 -2.2547 -2.1592 -2.8007 -2.9481 -2.3150
-2.4772 -3.1464 -3.4282 -3.6738 -4.0335 -4.1345
-3.9065 -3.8194 -3.8815 -3.7156 -4.1670 -4.8946
-4.4775 -3.8064 -3.5422 -3.0380 -2.5838 -2.7376
-3.0630 -3.3689 -3.5960 -3.2048 -2.6079 -1.7912
-0.5593 -0.0708 -0.5028 -0.7698 -0.9329 -1.2564
-1.4205 -1.3055 -1.6735 -2.6422 -2.4503 -1.6281
-1.3092 -0.7558 -0.2071 -0.7290 -1.9108 -2.5810
-3.0352 -3.2308 -2.7617 -1.7718 -0.9004 -0.8773
-1.0932 -0.9718 -0.9162 -0.9255 -0.3739 0.4371
0.5595 0.4547 0.4214 -0.2201 -1.1804 -1.6049
-0.7799 0.1850 0.2916 0.4742 0.4649 0.0219
-0.0486 0.1563 0.3889 0.7801 0.9451 1.1351
1.3084 1.0257 0.6818 0.4909 0.7745 1.3168
1.8275 2.2150 2.4532 2.3095 1.6635 1.4864
1.6190 1.3131 0.9951 1.1759 1.4197 1.6125
1.8859 2.1093 2.4847 2.7239 2.5459 2.1937
2.2067 2.3883 2.2104 2.0806 2.3031 2.2400
1.4595 0.6837 0.6105 0.8320 0.9312 1.2278
1.4762 1.6449 2.0908 2.4430 2.3058 1.8322
1.4197 1.2779 1.2380 1.1944 1.3817 1.6051
1.6171 1.0906 0.3352 0.3027 0.7634 0.9451
1.2770 2.1742 2.4866 1.8887 1.1870 0.8978
0.8802 0.9349 1.3122 1.5773 1.3085 0.8014
0.5716 0.7097 0.5957 0.1433 0.0432 0.3584
0.5947 0.5197 0.3445 0.5141 0.8033 0.8561
0.8061 0.5873 0.3315 0.0998 -0.2006 -0.3007
-0.0022 0.3778 0.4631 0.5493 0.7375 0.8014
0.7495 0.5864 0.3639 0.0849 -0.1690 -0.3470
-0.7196 -1.0228 -0.7354 -0.1533 -0.1375 -0.8902
-1.5381 -1.6021 -1.4936 -1.3147 -0.6084 -0.1069
-0.6566 -1.2508 -1.5483 -2.1128 -2.3473 -1.9024
-1.5465 -1.6225 -1.8904 -2.2862 -2.5086 -2.3622
-2.0739 -1.5372 -1.0366 -1.0895 -1.4176 -1.4501
-1.2823 -1.3611 -1.6169 -1.7254 -1.5678 -1.3861
-1.2128 -1.1710 -1.4936 -2.0572 -2.6996 -3.0601
-3.1908 -3.3512 -3.2659 -3.0008 -3.0574 -3.4318
-3.5940 -3.3799 -3.1167 -2.6884 -2.1100 -1.8153
-1.7253 -1.7161 -1.9775 -2.4623 -2.5058 -1.6568
-0.4888 0.1202 0.0544 -0.4981 -1.1544 -1.1043
-0.5185 -0.1458 0.0998 0.3936 0.3250 -0.1625
-0.5481 -0.4629 -0.0967 0.0534 -0.0698 -0.1551
-0.1922 -0.4953 -0.8410 -0.8763 -0.9217 -1.0820
-1.0505 -0.8624 -0.7724 -0.9476 -1.3054 -1.6428
-1.8208 -1.4899 -0.7252 -0.0087 0.3325 0.2815
0.1044 -0.3016 -0.6594 -0.4286 0.0609 0.2481
0.2518 0.1795 -0.2209 -0.5620 -0.3034 0.0979
-0.0596 -0.4165 -0.6547 -0.9124 -1.0403 -0.9597
-0.6668 -0.2098 0.2565 0.4150 0.3278 0.2815
0.2351 0.3010 0.5327 0.6550 0.5855 0.4150
0.1573 -0.0791 -0.1273 0.2055 0.6921 0.8608
0.9637 1.1880 1.1472 1.0119 1.3271 1.7498
1.5848 1.0416 0.5225 -0.0856 -0.6343 -0.5036
0.5021 1.5431 1.7970 1.4661 0.6866 -0.5045
-0.9708 -0.2858 0.5021 0.9174 1.0527 0.5179
-0.6668 -1.1599 -0.3859 0.6606 1.5217 2.1298
1.9602 0.8516 -0.4795 -1.1701 -1.1932 -0.7984
-0.0772 0.4511 0.3279 -0.2190 -0.7140 -0.8660
-0.6519 -0.3089 0.0618 0.4558 0.6680 0.5309
0.1814 -0.3785 -0.9346 -1.2748 -1.5927 -1.1525
0.0961 1.2789 1.4198 0.7533 0.5373 -0.0559
-0.7437 -0.9754 -0.4211 1.4179 2.1725 1.4569
0.5151 -0.6843 -1.6604 -1.5501 -0.2802 0.6032
0.9230 0.9962 0.1332 -0.8873 -1.3341 -1.4537
-1.3925 -0.9939 -1.0792 -1.6020 -1.5473 -1.5557
-1.2470 -0.7390 -0.4915 0.1230 -0.0512 -0.7446
-0.5573 0.1277 0.7172 0.6838 0.5188 0.0628
-0.9124 -0.8818 -0.3210 0.2565 0.9702 0.8896
0.8127 0.9971 0.9545 1.0704 1.1816 1.2993
1.1121 0.8117 1.0713 1.1009 0.7737 0.5448
0.2315 0.2982 0.7357 0.7385 0.3399 0.1898
0.0276 -0.7715 -1.2470 -0.7047 -0.0642 0.2259
0.3946 0.2120 -0.4776 -0.7557 -0.1245 0.6208
1.1278 1.5097 1.4170 0.7524 0.1425 -0.1884
-0.6241 -0.6871 0.1407 0.7135 0.5911 0.8498
1.2632 1.2215 1.4189 1.9788 2.3217 2.5377
2.8936 3.2459 3.2292 3.0874 3.2876 3.5814
3.7168 3.7010 3.6018 3.3849 2.9715 2.9103
3.4016 3.7585 3.6723 3.4368 3.3163 3.2172
2.9178 2.6527 2.6286 2.6100 2.4914 2.3783
2.4116 2.3903 2.2124 2.2661 2.4812 2.3736
2.1410 2.4144 2.9428 3.2042 3.1124 2.7880
2.4552 1.7619 1.0416 0.8933 0.8275 0.8146
0.8507 0.8841 0.9063 0.7524 0.6931 0.4197
0.0999 0.2139 0.1499 0.0461 0.3678 0.6282
0.5875 0.5986 0.5847 0.2649 0.4929 1.3197
1.5162 1.1297 1.0880 1.4820 1.2567 0.7793
0.8192 0.2389 -0.9077 -1.5751 -1.6057 -1.2303
-0.5082 0.4475 0.7265 0.3557 0.0980 -0.2180
-0.4266 -0.0938 0.5179 0.9694 1.0166 0.7052
0.1926 -0.1689 -0.2032 -0.1263 -0.0948 -0.1448
-0.1735 -0.3052 -0.5675 -0.7909 -0.8854 -1.0866
-1.4462 -1.7493 -2.0496 -2.0617 -1.8086 -1.5065
-1.1941 -0.9948 -0.9475 -0.9522 -0.9698 -0.9837
-0.7835 -0.4961 -0.1967 -0.0252 -0.1263 -0.2829
-0.1022 0.3215 0.2390 -0.0345 -0.0178 -0.3339
-1.3452 -2.0765 -2.0089 -1.7660 -1.0856 0.0777
1.4430 2.0075 0.6783 -1.5389 -2.8616 -2.8588
-1.9653 0.5365 2.4784 1.6386 0.2899 0.4624
0.5421 -0.7260 0.0786 1.4746 0.3817 -0.2690
0.1342 -0.7853 -2.2554 -1.2024 -0.8344 -2.6568
-2.7652 -1.9347 -1.7576 -1.7855 -0.7769 -0.4025
-1.7595 -2.1405 -1.0087 -0.7111 -1.5231 -0.9466
-0.2477 -0.6472 -0.7176 -0.4256 -1.1672 -1.8170
-0.9660 -1.2627 -1.7799 -0.9243 -0.6055 -1.0671
-1.0847 -0.3904 -0.1587 -0.4349 -0.5091 -0.1151
-0.4043 -1.9996 -1.8985 -0.1763 -0.0456 -0.0206
1.0853 0.5810 -1.0828 -1.1162 0.0610 0.3150
0.1213 0.7775 0.9203 0.0796 -0.3209 0.2297
0.5402 0.1750 0.3984 0.5532 0.2325 0.0091
-0.1883 0.0267 0.1778 -0.1068 -0.3227 -0.0929
0.2872 0.2223 0.5087 1.1974 0.7154 -0.1346
-0.0178 0.0332 -0.3598 -0.2977 0.5949 0.8452
-0.2931 -0.6305 -0.4321 -1.0578 -1.2144 -0.9503
-1.2181 -1.8308 -1.9513 -1.7066 -2.1970 -2.5121
-1.9569 -1.6890 -1.7381 -1.6288 -1.9662 -2.0755
-1.0151 -0.8603 -2.0190 -2.5446 -2.6169 -3.0080
-2.8940 -1.7780 -1.5185 -2.1135 -2.4213 -3.0442
-3.5512 -3.2249 -2.2721 -1.9995 -3.0266 -3.9415
-3.7477 -2.8922 -2.2600 -2.4204 -2.9802 -3.4854
-4.2010 -4.3521 -3.3816 -2.1849 -1.5833 -1.5036
-1.6028 -2.2266 -2.4917 -1.5379 -0.8798 -0.9530
-0.6620 -0.4515 -0.8631 -0.7686 -0.3264 -0.3728
-0.3273 -0.3728 -0.5897 -0.4617 -0.1169 0.1287
0.3095 0.6256 0.0193 -0.9827 -0.8742 -0.5257
0.2057 1.4477 2.1958 1.9464 0.9852 0.3827
0.2455 0.8202 2.2329 3.4128 3.3934 2.8873
2.8242 2.3682 1.7379 2.0994 2.8780 2.9188
2.9902 3.3517 2.9874 2.2236 1.5358 1.4227
2.2764 3.6446 4.3287 4.0673 3.3980 2.0966
1.4422 2.2069 2.9781 3.3146 3.2173 2.2486
1.3365 1.4644 1.7509 1.8565 2.0076 1.5562
0.6979 0.4439 0.7553 0.8462 0.8073 0.6599
0.3697 0.3790 0.3271 0.2103 0.5774 1.0927
1.2726 1.2763 0.9583 0.5422 0.7211 1.0047
0.9556 1.0205 1.1196 0.5848 -0.1855 -0.0900
0.4773 0.6024 0.5292 0.2446 -0.8547 -1.7835
-1.3275 -0.8909 -1.2301 -0.9595 -0.3959 -1.0902
-2.1636 -2.0227 -1.6843 -1.6055 -0.7277 0.1612
0.0379 -0.7389 -1.3831 -1.5564 -1.7325 -1.6908
-1.0827 -0.5776 -0.6026 -0.7046 -0.7861 -1.0512
-1.0809 -0.8149 -0.3431 0.1955 0.2511 -0.3245
-1.0401 -1.3423 -1.5379 -1.5138 -0.9900 -0.9131
-0.7110 0.6173 1.6211 1.1002 -0.1308 -0.7296
-0.8121 -0.8723 -0.2133 0.3772 0.4291 1.0131
1.1947 0.6098 0.5357 0.6923 0.2159 -0.0307
0.0055 -0.6563 -0.2791 1.2921 1.2429 0.3123
0.6163 0.4041 -1.3274 -1.6639 -0.1957 0.3494
0.1297 0.3522 0.1093 -0.6888 -0.1836 1.4923
1.7806 1.0511 0.8712 0.2502 -0.5942 -0.1410
0.6599 0.3846 0.0741 0.4578 0.5746 0.6886
1.3829 1.6304 1.2976 1.2170 1.2680 0.9537
0.4560 0.4875 0.4671 0.1510 0.5301 1.0242
0.8796 0.5246 0.6293 0.9287 0.7128 0.7619
1.3319 1.5915 1.3857 0.8750 0.4486 0.2289
0.1047 0.1566 0.2576 0.2317 -0.0093 -0.2086
-0.2902 -0.3337 0.1390 0.5932 0.1918 -0.2179
-0.3245 -0.3041 0.3818 1.0224 0.7786 0.0982
-0.4181 -0.4904 0.1779 1.6981 2.6111 1.7621
0.3633 -0.2744 -0.0241 0.7304 1.4923 1.5553
0.6683 -0.0659 0.2780 1.3533 2.0679 1.8464
1.3394 0.9853 0.9362 1.2838 1.8733 2.1801
1.4108 0.2428 -0.1650 0.0630 0.7665 1.8408
2.5018 2.2302 1.3477 0.4180 -0.1836 0.0333
0.9315 1.5674 1.6564 1.4552 1.0771 0.4773
-0.1020 -0.3791 -0.4598 -0.2142 0.4384 1.1002
1.2226 0.6952 0.1186 -0.1317 -0.0816 0.1362
0.3698 0.6609 0.6905 0.1779 -0.5877 -1.1763
-1.3914 -1.5128 -1.6120 -1.3144 -0.8686 -0.6554
-0.7156 -1.0465 -1.5295 -2.0272 -1.9559 -1.2505
-0.4598 -0.1659 -0.5163 -0.7712 -0.9511 -1.1930
-1.0771 -0.5673 -0.0362 0.2428 0.3068 0.3022
0.6312 0.9937 1.0011 0.8370 0.5024 0.1807
0.2855 0.8324 1.4015 1.9799 2.1718 1.8066
1.5276 1.3450 1.2995 1.2764 1.1244 1.2486
1.4460 1.1689 0.5163 0.0714 0.1576 0.4032
0.7109 0.9640 0.5895 -0.0630 -0.7249 -1.3218
-1.1763 -0.4792 -0.1270 -0.3142 -0.7156 -1.0261
-1.1142 -1.0437 -0.9297 -0.8407 -0.7378 -0.8194
-0.8352 -0.4931 -0.3495 -0.5413 -0.7369 -0.8991
-1.0864 -0.8537 -0.5302 -0.7944 -0.9473 -0.9872
-1.4599 -1.6879 -1.2032 -0.8157 -0.9084 -0.8027
-0.4014 -0.4560 -0.8194 -0.7666 -0.6683 -0.8277
-1.1105 -1.5192 -1.8826 -1.9781 -1.6713 -1.3209
-1.4330 -1.9836 -2.4944 -2.6334 -2.3933 -2.0457
-1.4729 -0.4811 -0.2021 -0.8472 -1.3301 -1.5897
-1.6314 -1.2903 -0.8287 -0.4069 -0.3161 -0.8110
-1.5433 -1.9827 -1.8733 -1.4655 -1.0493 -0.7091
-0.3596 -0.0714 -0.3235 -0.8027 -0.9362 -0.8166
-0.6080 -0.1770 0.4348 0.8018 0.8815 0.8287
0.6192 0.3458 0.2614 0.2966 0.2985 0.4375
0.6544 0.6646 0.4070 0.0501 -0.1946 -0.3198
-0.4180 -0.3151 0.0556 0.2447 0.1344 0.1196
0.0315 -0.0973 0.1548 0.4357 0.4737 0.4273
0.3727 0.5441 0.9242 1.2088 1.3598 1.3293
1.0781 0.4885 -0.1557 -0.1084 0.4375 1.2106
2.0977 2.3266 1.8363 1.2681 0.9520 0.9029
0.8593 0.8778 0.9288 0.9353 1.1735 1.3617
1.4312 1.4813 1.3126 0.9464 0.5729 0.5747
0.8723 1.2523 1.6166 1.4247 0.6331 -0.0259
-0.0194 0.5377 1.2533 1.9373 2.2942 2.1858
1.6954 1.0215 0.9678 1.6185 2.0532 1.9994
2.0096 1.9271 1.2598 0.6943 0.6600 0.8111
0.7388 0.8269 1.3080 1.3803 1.3367 1.4757
1.4767 1.3367 1.0892 0.8436 0.4709 0.0668
0.0807 0.3402 0.3282 0.2216 0.1215 -0.2854
-0.7647 -0.9037 -0.6896 -0.4838 -0.3540 -0.0750
-0.0750 -0.3105 -0.4755 -0.8861 -1.2541 -1.2930
-1.0965 -0.8453 -0.5913 -0.1362 0.0177 -0.3614
-0.8963 -1.5507 -2.0531 -2.2403 -2.1940 -1.9585
-1.7871 -1.8464 -2.1402 -2.4322 -2.5166 -2.3367
-2.1968 -2.0874 -1.7342 -1.7249 -2.0633 -2.1523
-2.2060 -2.4619 -2.3562 -1.8936 -1.7935 -2.0281
-2.2774 -2.4118 -2.5314 -2.5666 -2.4433 -2.4461
-2.6027 -2.7844 -2.8651 -2.9930 -3.0903 -2.8688
-2.7093 -2.6788 -2.5434 -2.5425 -2.5777 -2.3497
-2.1448 -2.1226 -1.8260 -1.4830 -1.7083 -1.8686
-1.6786 -1.7249 -1.7212 -1.4552 -1.3551 -1.4543
-1.4524 -1.4126 -1.6230 -1.8093 -1.7629 -1.7518
-1.6925 -1.5516 -1.4672 -1.3653 -1.2828 -1.2068
-1.1882 -1.2290 -1.2689 -1.3755 -1.3755 -1.3662
-1.5618 -1.6934 -1.6545 -1.5859 -1.5219 -1.3161
-1.0853 -1.1780 -1.1178 -0.8555 -1.0696 -1.2225
-0.8555 -0.5310 -0.3976 -0.2937 -0.2539 -0.1955
-0.1093 -0.0620 0.1150 0.2541 0.1697 0.1883
0.3264 0.4849 0.6035 0.6536 0.7973 1.0188
1.2311 1.2181 0.9929 0.7519 0.5563 0.5136
0.5285 0.4525 0.1994 0.0020 0.0965 0.3440
0.4265 0.3116 0.4497 0.5878 0.4191 0.3598
0.4747 0.5934 0.7769 0.8177 0.6573 0.5192
0.3598 0.3746 0.5906 0.7324 0.7482 0.8362
1.1514 1.5101 1.7808 1.9995 1.9513 1.4406
0.9178 0.8260 1.2913 1.9244 2.2229 2.2711
2.0032 1.5444 1.2719 1.2645 1.4739 1.7353
2.0783 2.3026 1.9977 1.7270 1.9958 2.2841
2.1302 1.9671 2.3620 2.5612 2.3286 2.5548
2.6456 2.1061 1.9773 2.0199 1.6334 1.6019
2.1015 2.3008 1.9300 1.7678 1.7595 1.5240
1.4322 1.4378 1.4443 1.5277 1.6000 1.4183
1.4749 1.9504 1.8911 1.4369 1.2237 0.9493
0.5368 0.4886 0.5795 0.2949 0.1865 0.5192
0.5507 0.2745 0.1058 -0.1231 -0.3298 -0.4605
-0.4921 -0.0091 0.6592 0.9957 1.1764 1.1672
0.8891 0.5146 0.1716 0.0845 0.2606 0.3830
0.5220 0.5767 0.4034 0.3607 0.1800 -0.1732
-0.4429 -0.5699 -0.4003 -0.3604 -0.1769 0.3097
0.2745 -0.0555 -0.2399 -0.4253 -0.5884 -0.6366
-0.5087 -0.3929 -0.6839 -0.8980 -0.7210 -0.7720
-0.7914 -0.6385 -0.7108 -1.0324 -1.2772 -1.0009
-0.7080 -1.0093 -1.3393 -1.2577 -1.1492 -0.9787
-0.5115 -0.1064 -0.1519 -0.1500 -0.0990 -0.4698
-0.6366 -0.6320 -0.8118 -0.7757 -0.3836 -0.1018
-0.1370 -0.0953 -0.0758 -0.2065 -0.1722 0.0660
0.1364 -0.0703 -0.0276 0.1707 0.2356 0.4850
0.4868 0.2569 0.3607 0.5777 0.7732 1.0179
1.3220 1.3155 0.8585 0.2569 -0.1555 -0.2214
-0.0452 0.4090 0.7408 0.7019 0.4275 0.0864
-0.0601 -0.1120 0.2347 0.7139 0.7760 0.8919
0.8502 0.5044 0.3682 0.4507 0.5350 0.5740
0.6055 0.3478 -0.1018 -0.1092 0.0938 0.1272
0.2579 0.3070 0.0271 -0.3011 -0.4206 -0.3873
-0.2621 -0.1212 -0.1945 -0.2603 -0.1972 -0.2130
-0.2037 -0.1453 -0.1444 -0.2797 -0.3947 -0.4021
-0.3956 -0.3242 -0.4781 -0.7701 -0.8257 -0.7766
-0.9545 -1.2400 -1.3207 -1.4013 -1.5802 -1.7563
-1.6182 -1.2614 -1.0445 -0.9008 -0.9916 -1.0472
-1.0213 -1.1974 -1.2465 -1.0287 -0.8989 -0.9925
-0.9870 -0.9916 -1.1103 -1.3781 -1.7832 -1.9287
-1.7452 -1.6451 -1.7332 -1.5274 -1.4467 -1.6970
-1.6525 -1.4013 -1.2604 -1.2271 -1.1177 -1.0287
-1.0889 -1.0889 -0.8869 -0.6653 -0.5393 -0.3567
-0.0118 0.2319 0.0493 -0.2538 -0.3149 -0.1805
-0.1157 0.1402 0.5045 0.3182 -0.0193 -0.2417
-0.3974 -0.3585 -0.0294 0.4192 0.5490 0.5499
0.4489 0.2051 0.0364 -0.0118 0.1912 0.6565
0.9865 0.8465 0.5907 0.4711 0.3830 0.5610
0.9661 1.3239 1.5788 1.6687 1.5825 1.2831
1.1190 1.1561 1.1645 1.2108 1.1450 1.0430
0.9105 0.6380 0.5731 0.9003 1.2136 1.5556
1.8541 1.6687 1.4629 1.4805 1.5232 1.6520
1.8624 1.8448 1.5297 1.4555 1.6289 1.4861
1.2692 1.4314 1.5037 1.4602 1.6659 1.8522
1.7994 1.5964 1.4991 1.3684 1.2618 1.4805
1.7790 1.9487 1.7531 1.2423 1.0282 1.1821
0.9985 0.7019 0.8475 1.0217 0.8966 0.8373
1.1348 1.1441 1.0699 1.4324 1.5491 1.4435
1.4592 1.6548 1.6761 1.1042 0.2663 -0.3529
0.3692 1.7132 1.4908 0.4748 0.3349 0.2626
-0.5828 -0.6421 0.2904 0.3580 0.0040 0.1087
0.1309 0.1430 0.1133 0.3682 1.1154 1.3730
1.0060 0.9837 1.0848 0.4869 0.2756 0.9828
1.1404 0.7390 0.7835 0.6473 -0.0665 -0.3714
-0.3056 -0.5216 -0.5624 -0.3455 -0.2658 -0.3853
-0.6922 -0.8692 -0.8368 -0.9758 -0.9517 -0.3427
-0.1638 -0.4298 -0.1221 -0.1369 -0.8655 -1.0379
-0.7357 -0.7505 -0.5522 -0.0359 -0.3297 -0.9378
-1.2149 -1.5653 -1.5310 -1.1232 -0.5522 -0.4131
-0.6486 -0.4215 -0.5188 -1.0870 -1.4096 -1.3929
-1.3039 -1.1602 -0.7913 -0.7960 -1.2400 -1.3002
-1.1009 -1.0787 -0.9146 -0.6096 -0.7580 -1.2029
-1.4615 -1.6181 -1.6562 -1.5792 -1.5051 -1.5421
-1.5403 -1.4105 -1.3382 -1.1575 -0.9563 -1.0462
-1.1760 -1.1992 -1.3048 -1.2437 -0.9368 -0.6986
-0.6810 -0.8905 -1.0166 -1.0314 -1.0323 -0.9192
-0.6467 -0.3418 -0.1693 0.0003 -0.0155 -0.2481
-0.5522 -0.7459 -0.6940 -0.5772 -0.3974 -0.4020
-0.3390 -0.0766 -0.0711 -0.1452 0.0337 0.3386
0.3516 0.2561 0.1792 -0.0396 -0.1462 -0.1897
-0.2148 -0.1944 -0.2611 -0.2398 -0.1591 -0.1758
-0.1378 0.1254 0.3219 0.0958 -0.0071 0.0902
-0.2815 -0.6940 -0.5169 -0.1387 -0.1424 -0.2778
-0.2333 -0.4011 -0.5596 -0.4697 -0.3612 -0.1563
-0.1601 -0.2509 -0.1665 -0.2639 -0.4947 -0.6680
-0.4937 -0.2926 -0.0896 -0.1990 -0.2870 -0.1220
0.0772 1.2684 -0.2472 -2.1650 -0.5410 -0.4687
-1.3595 0.6788 2.3881 0.1709 -0.8710 0.3451
-0.0256 -0.2351 0.5991 1.2276 1.4741 0.9087
0.0263 0.6659 1.2461 0.7122 1.1442 2.0970
1.9107 1.3499 1.4055 1.8004 1.8190 1.1849
0.7734 1.1395 1.1905 0.8197 1.4927 1.8894
1.0098 0.8401 1.5168 1.6632 1.5112 1.7133
1.7077 1.1701 0.9226 1.2063 1.3926 1.2155
0.8170 0.5389 0.5027 0.3016 0.3451 0.9254
0.8003 0.2154 0.3498 0.4925 0.0884 0.2089
0.9087 0.8735 0.5482 0.7456 0.7938 0.7039
1.0663 1.3861 1.1896 0.9875 0.9319 0.8290
0.8021 0.8958 1.0728 1.0376 0.6214 0.4944
0.5889 0.3507 0.3776 1.0051 1.3203 1.0144
0.9671 0.9486 0.6288 0.6789 0.9922 0.9078
0.6334 0.8021 0.8133 0.3581 0.2237 0.4740
0.5611 0.2729 0.0893 0.1042 0.0272 -0.1202
-0.2981 -0.3556 -0.4613 -0.4205 -0.2156 -0.2147
-0.0914 -0.4622 -1.1528 -1.0906 -0.8728 -0.8812
-0.6976 -0.2573 -0.4789 -0.8997 -0.5669 -0.3435
-0.4029 -0.8932 -0.8209 -0.2972 -0.5938 -0.0738
0.0856 -1.1110 -1.4271 -1.7413 -2.3883 -1.9870
-1.0554 -0.3834 -0.8867 -0.9961 -0.6086 -2.0268
-2.2956 -1.2065 -1.0295 -0.9312 -0.6985 -0.5122
-1.0434 -1.3845 -1.0183 -0.8033 -0.7106 -0.7217
-0.6911 -0.6392 -0.6967 -0.8033 -0.8024 -0.9349
-0.8394 -0.2314 -0.3268 -0.3973 0.2924 0.0792
-0.2629 0.2849 0.5825 0.4805 0.5426 0.8012
0.4490 0.0319 0.3776 0.3100 -0.0339 0.3674
0.6363 0.3897 0.5658 0.9069 0.7734 0.3786
0.5908 0.7280 0.2479 0.3823 0.6159 0.2970
0.2006 0.7095 0.5704 0.2052 0.6418 0.6233
0.3656 0.5658 1.1192 1.0886 0.2368 -0.0460
0.2451 0.4036 0.4045 0.4546 0.5816 0.6279
0.1848 -0.1757 0.2136 0.5297 0.5862 0.5621
0.3684 0.0106 -0.3973 -0.2239 0.2905 0.3879
0.2655 -0.0552 -0.3908 -0.6095 -0.8209 -0.6188
-0.3759 -0.3630 -0.6021 -0.6420 -0.5391 -0.8978
-0.7680 -0.2795 -0.1377 -0.3611 -0.6920 -0.9284
-1.3251 -1.2565 -0.9757 -1.0044 -1.0100 -1.0331
-0.9580 -1.1036 -1.2584 -1.0035 -0.7578 -0.7829
-1.1295 -1.0906 -0.6707 -0.6383 -0.9154 -1.0442
-1.0322 -1.0266 -0.9868 -1.1546 -1.3687 -1.6097
-1.6773 -1.4604 -1.2472 -0.9469 -1.0109 -1.2611
-0.9395 -0.6948 -1.0415 -1.1935 -1.0795 -1.1471
-1.3427 -1.1657 -0.8885 -1.2185 -1.1592 -0.6030
-0.3166 -0.3333 -0.6948 -0.6790 -0.5455 -0.6790
-0.6355 -0.6410 -0.6058 -0.5446 -0.4760 -0.6883
-1.1323 -1.2398 -1.1128 -0.5798 -0.2424 -0.5974
-1.0433 -1.0099 -0.4121 0.0635 -0.1915 -0.8941
-0.9654 -0.7031 -0.8486 -0.9089 -0.8718 -1.0183
-1.1239 -0.8959 -0.6494 -0.4603 -0.1562 -0.2257
-0.3778 -0.0570 0.0208 -0.2721 -0.3360 -0.3694
-0.2341 0.3675 1.0182 1.0571 0.4917 0.1691
0.0903 -0.0413 0.1274 0.4064 0.5047 0.7689
0.6975 0.1942 0.3916 0.7475 0.7336 0.9144
1.1146 1.0710 0.7893 0.7865 1.0062 0.9848
1.0794 1.0432 0.6678 0.5001 0.8069 1.0581
0.8022 0.7735 0.9468 0.5288 0.2498 0.8208
1.2286 1.1573 1.3871 1.4038 0.7568 0.5751
1.2880 1.7449 1.7366 2.0258 2.3521 2.0351
1.2574 0.9190 1.0099 0.9969 1.1100 1.2361
1.1165 0.8162 0.4296 0.4788 0.7374 0.3963
-0.0162 0.1339 0.3888 0.3592 0.3416 0.3323
-0.0181 -0.0162 0.2591 0.0450 0.1729 0.3286
-0.2461 0.0236 0.9589 0.5260 -0.1358 0.3879
0.7457 0.3054 0.1163 0.2758 0.0171 -0.0107
0.2563 -0.0422 -0.3286 -0.1367 0.3499 0.7531
0.5038 0.0950 0.0579 -0.1599 -0.4574 -0.1923
0.2897 0.2229 -0.1682 -0.2155 -0.1247 -0.5436
-0.8458 0.1562 0.9311 0.3916 0.3342 0.3972
-0.2368 -0.3675 0.2276 0.4704 0.2331 0.6530
0.8134 0.1599 0.2007 0.5650 0.7652 1.0665
1.2398 1.1165 0.6790 0.8542 1.3399 0.9506
0.5075 0.4417 0.1831 -0.1376 0.3722 1.2426
1.1091 0.7967 0.7828 0.7031 0.3045 -0.0672
0.5882 0.9524 0.3101 0.0700 0.2211 -0.1135
-0.4120 -0.0672 0.3833 0.2767 -0.3221 -0.2359
-0.0153 -0.6613 -0.8708 -0.3462 0.0839 -0.0690
-0.5872 -0.8671 -1.0219 -0.9700 -0.7633 -0.4658
-0.1469 -0.3239 -0.7132 -0.9839 -0.7624 -0.1580
-0.1052 -0.0403 0.1164 -0.6113 -1.2249 -0.7707
-0.9237 -1.5549 -0.8096 -0.4583 -1.1508 -1.2249
-1.0849 -1.1572 -0.9357 -0.8041 -1.1257 -1.0061
-0.6771 -0.4287 -0.1747 -0.5473 -0.7290 -0.6252
-0.7030 -0.4565 -0.1135 0.0422 -0.3601 -0.6493
-0.1089 -0.0375 -0.5278 -0.3527 -0.0922 -0.3851
-0.4175 -0.2238 -0.1172 -0.0514 -0.0217 0.1321
0.0144 -0.2655 -0.3146 -0.1877 0.0700 -0.0013
-0.2238 -0.3712 -0.7206 -0.9032 -0.9496 -0.7429
-0.3777 -0.5260 -0.7114 -0.8689 -1.3333 -1.6976
-1.4390 -1.1183 -1.5095 -1.3222 -0.9598 -1.2267
-0.9589 -1.0543 -1.5604 -1.1099 -0.7002 -1.2777
-1.4130 -0.8754 -1.0970 -1.3982 -1.3166 -1.3676
-1.1813 -1.0033 -1.1748 -1.3250 -1.1313 -0.9978
-1.0386 -0.9320 -1.0478 -0.9913 -0.9746 -1.3435
-1.1155 -1.1331 -1.7875 -1.7208 -1.3519 -1.3231
-1.1155 -1.1795 -1.3899 -0.9384 -0.7067 -0.8328
-0.6594 -0.6492 -1.1294 -1.2137 -0.8448 -1.0015
-0.6724 0.0701 -0.0356 -0.1237 0.2174 0.3166
0.0571 0.0784 0.2842 0.1146 0.1544 0.5354
0.7680 0.8941 0.8200 0.6698 0.6401 0.6114
0.5706 0.5474 0.6290 0.6967 0.8561 0.8867
0.7532 0.9905 1.0619 0.8987 0.9238 0.9729
0.9933 1.0276 1.3548 1.3520 0.9275 1.2121
1.7645 1.8192 1.6505 1.6709 1.6941 1.6459
1.6653 1.5921 1.8312 1.9999 1.8211 1.8980
1.9684 1.8146 1.6746 1.7710 1.9443 1.9759
2.1334 2.1149 1.7126 1.6088 1.7932 1.9490
2.0241 1.8832 1.9592 2.1483 2.0333 1.8776
1.6310 1.2260 0.9173 1.1889 1.7627 1.9768
2.0611 1.8961 1.3854 1.2158 1.4735 1.6190
1.7942 2.0667 2.0213 1.5903 1.4234 1.9230
2.2484 2.2261 2.1056 1.6060 1.1286 1.0675
1.2927 1.5708 1.7386 1.7831 1.5893 1.1324
0.9257 1.1407 1.4086 1.6570 1.7942 1.6579
1.2390 0.9803 1.0628 1.0313 0.9868 1.0832
1.1444 1.1268 0.9933 0.7050 0.3009 0.1582
0.2759 0.2175 0.1897 0.3232 0.2638 -0.0319
-0.2404 -0.2562 -0.2126 0.0488 0.2814 0.1786
-0.0133 -0.1681 -0.3387 -0.3813 -0.2821 -0.4647
-0.6501 -0.4610 -0.4462 -0.6928 -0.6918 -0.7641
-1.0543 -1.0737 -0.9579 -0.9402 -0.8540 -0.6788
-0.8939 -1.1924 -1.1182 -1.1998 -1.3481 -1.2721
-1.0580 -0.9106 -1.0719 -1.1544 -1.1108 -1.2508
-1.3101 -1.3416 -1.3870 -1.3481 -1.3981 -1.5594
-1.8301 -1.9385 -1.8338 -1.9061 -2.0099 -1.9701
-2.0081 -1.9358 -1.6215 -1.4964 -1.5984 -1.6799
-1.6160 -1.4677 -1.5362 -1.5464 -1.2285 -0.9384
-0.9133 -0.8095 -0.6028 -0.7808 -0.9699 -0.8503
-0.8364 -0.9078 -0.7437 -0.5055 -0.4276 -0.3609
-0.4184 -0.6075 -0.6399 -0.5009 -0.3247 -0.1486
0.0201 0.0358 -0.0068 -0.0745 -0.2163 -0.2395
-0.2367 -0.1486 0.0813 0.1461 -0.0105 -0.1653
-0.1199 -0.0439 -0.0142 0.2166 0.4205 0.3936
0.3825 0.3241 0.1962 0.0905 0.1165 0.2110
0.1295 0.1703 0.3612 0.4474 0.3909 0.3566
0.3575 0.2481 0.1638 0.0729 -0.0365 -0.1681
-0.1709 -0.0652 -0.0791 -0.2005 -0.3933 -0.5759
-0.7038 -0.5935 -0.4897 -0.5101 -0.4814 -0.5398
-0.5008 -0.3581 -0.4063 -0.4665 -0.3331 -0.3535
-0.4471 -0.4267 -0.3266 -0.1542 -0.1708 -0.0976
-0.0439 -0.1180 0.1360 0.3853 0.4168 0.3816
0.2101 0.0006 -0.0615 0.0943 0.4001 0.5985
0.4298 0.1026 -0.0587 -0.2737 -0.3822 -0.1245
0.1508 0.2834 0.1471 -0.0253 -0.0679 -0.1922
-0.1606 -0.0225 0.0025 0.0563 0.0906 0.0331
0.0257 -0.0040 0.0359 0.1378 0.0201 0.0025
0.0980 0.1230 0.2083 0.1249 -0.0531 -0.0911
-0.2394 -0.3896 -0.3303 -0.3275 -0.3145 -0.2348
-0.2691 -0.3998 -0.5360 -0.5935 -0.6547 -0.6982
-0.5685 -0.4109 -0.4100 -0.4554 -0.5722 -0.6788
-0.6677 -0.5638 -0.4378 -0.5564 -0.6973 -0.8039
-0.9448 -0.9606 -0.8651 -0.7001 -0.7650 -0.7900
-0.9096 -1.2386 -1.1358 -0.8920 -0.6167 -0.3423
-0.3599 -0.4480 -0.4999 -0.6000 -0.5759 -0.2922
-0.0383 0.1925 0.3835 0.4169 0.4929 0.6143
0.7051 0.8080 1.0092 1.1853 1.1816 1.1186
1.2233 1.3178 1.3401 1.5403 1.5996 1.5236
1.5301 1.6274 1.5579 1.3327 1.4995 1.4634
1.2168 1.3753 1.4013 1.1556 1.1556 1.3021
1.0157 0.8711 1.2011 1.3429 1.3086 1.2650
1.3661 1.3401 1.1779 1.3012 1.3067 1.1093
1.0555 1.1371 1.0592 0.9425 1.0713 1.0555
0.9610 1.0537 1.1074 0.9471 0.7367 0.8043
0.7200 0.5105 0.6523 0.7654 0.7997 0.7154
0.3974 0.3344 0.4095 0.2436 0.2167 0.5281
0.8053 0.6570 0.3362 0.2973 0.2148 0.0276
0.1045 0.2797 0.3001 0.1815 0.1462 0.2667
0.1064 -0.2032 0.0331 0.1972 0.0341 0.1184
0.1722 0.3279 0.2473 -0.1189 -0.0206 0.1027
0.1972 0.4327 0.5012 0.4614 0.3279 0.1935
0.2686 0.3696 0.4150 0.5272 0.4632 0.3937
0.2667 0.0248 0.2751 0.2992 0.1583 0.4660
0.4049 0.2806 0.2742 0.3140 0.6097 0.6690
0.7005 0.7793 0.5782 0.5476 0.7970 0.7821
0.7682 0.8841 0.8498 0.7348 0.5040 0.5745
0.6283 0.5105 0.6774 0.5300 0.3390 0.3446
0.1639 0.0999 0.1574 0.0925 0.1398 0.1833
-0.0048 0.1138 0.0656 -0.0475 0.1129 0.0035
0.0925 -0.0067 -0.2672 -0.3339 -0.3293 -0.0669
-0.0215 -0.1151 -0.3079 -0.6009 -0.6546 -0.5499
-0.5174 -0.2987 -0.0549 -0.2746 -0.4405 -0.5795
-0.6954 -0.6092 -0.4405 -0.3941 -0.5814 -0.7204
-0.7529 -0.7751 -1.1273 -0.9141 -0.5239 -0.7705
-0.6954 -0.8965 -1.1273 -1.2525 -1.5176 -1.2469
-1.3257 -1.6029 -1.4462 -1.3294 -1.3081 -1.3961
-1.5435 -1.5741 -1.6548 -1.7382 -1.8058 -1.9569
-1.9087 -1.8559 -1.7493 -1.5704 -1.5954 -1.7530
-1.8392 -1.9421 -2.0404 -1.8670 -1.8995 -1.7697
-1.9597 -2.3518 -2.0765 -2.0876 -1.9514 -1.7280
-1.7447 -1.8216 -2.0366 -1.7892 -1.5101 -1.8420
-1.9940 -1.6306 -1.9412 -2.2600 -1.7688 -1.5166
-1.8216 -2.0496 -1.6816 -1.6788 -1.9504 -1.8698
-1.6835 -1.3767 -1.3118 -1.2673 -1.4202 -1.5593
-1.7252 -2.0654 -1.8429 -1.5009 -1.2951 -1.5824
-1.7956 -1.5899 -1.8772 -2.1831 -1.9458 -1.7020
-2.0811 -2.1812 -1.9365 -2.0756 -2.1488 -1.7613
-1.4582 -1.7317 -1.4740 -0.9920 -0.9753 -0.9799
-0.8557 -0.6991 -0.9744 -1.1004 -0.8807 -0.7222
-0.5267 -0.3478 -0.3311 -0.5044 -0.7658 -0.7426
-0.4349 -0.3292 -0.1142 0.1750 0.1825 -0.0002
-0.0298 -0.0484 -0.2421 -0.0215 0.1343 0.2983
0.6988 0.6005 0.3558 0.3753 0.5319 0.5162
0.7507 1.1279 0.8536 0.7609 0.9463 0.8258
0.6246 0.8916 1.3272 1.1150 1.1817 1.4181
1.0927 0.9444 1.1595 1.1734 1.1150 1.6174
1.6619 1.0408 1.0390 1.6044 1.6999 1.1632
1.3680 1.8296 1.5543 1.3180 1.3986 1.6433
1.6906 1.5645 1.4227 1.3838 1.3986 1.2846
1.4227 1.6276 1.6943 1.6387 1.6303 1.7008
1.3968 1.2002 1.5423 1.8751 1.9251 1.7036
1.4468 1.3995 1.3921 1.5441 1.6554 1.5812
1.6276 1.6164 1.3328 1.1762 1.3504 1.3569
1.3912 1.5265 1.4932 1.3096 1.1326 1.2095
1.2151 1.2735 1.3968 1.2290 1.0909 1.1660
