Archivo de aceleración parte de la Red Nacional de Acelerógrafos (RENAC) Ecuador
          
Evento: 201604162358
Fecha del evento UTM (aammdd):                  2016    4   16
Hora del registro UTM (hhmmss): 23   59 15.00
Estación:                                      ACHN 
Componente:                                        N
Frecuencia de muestreo (Hz):            1.000000e+02
Unidades: cm/s^2
_____________________________________________
-0.4571 -1.1144 -2.6611 -4.9976 -7.6251 -10.4800
-13.6194 -16.2994 -17.5385 -16.9659 -15.3290 -13.2981
-11.0324 -9.1819 -7.8820 -6.6179 -5.1164 -3.3414
-1.7607 -0.5528 0.5575 1.1771 1.0500 0.0631
-2.1906 -5.5178 -9.4287 -13.9490 -19.3126 -25.2360
-31.5967 -37.7732 -42.6443 -45.7321 -46.8544 -46.3066
-44.1035 -40.3068 -35.5563 -30.2627 -24.4958 -18.1158
-10.9330 -2.8185 6.1255 15.0419 22.1096 27.1179
30.8114 32.2881 31.3417 28.2419 23.1011 16.9623
10.4930 4.8016 1.1577 -0.4884 -0.1532 2.6694
8.0018 14.9894 22.8304 30.9449 38.5687 44.8944
49.3669 51.5792 51.2339 48.7224 44.1284 38.2161
32.3655 26.8444 22.0424 17.7808 13.7244 10.1026
7.2155 5.0916 3.6508 3.1997 3.5615 4.7160
5.6882 6.2636 6.8500 6.4265 5.8116 6.8151
10.6845 17.2680 25.0483 32.7853 39.9580 45.8519
49.5022 50.5545 48.0402 41.8130 33.0780 23.0864
13.6950 6.2056 0.4314 -3.8468 -6.1208 -6.1457
-4.0006 -0.1081 4.1977 8.0680 11.5775 14.8172
17.2265 18.0938 17.2698 14.2299 8.9307 2.4236
-4.2363 -10.6890 -16.8112 -22.2669 -26.9668 -30.8491
-34.0216 -36.4429 -38.1194 -39.4948 -40.5646 -40.9374
-40.2718 -38.6128 -36.2265 -32.9822 -28.5309 -22.9694
-17.4051 -13.4942 -11.8674 -12.3535 -15.4634 -21.4347
-29.2426 -37.2466 -43.8826 -48.0355 -49.2545 -47.6369
-43.7647 -38.4517 -32.0165 -24.7416 -17.2449 -10.2140
-4.1019 1.2866 6.1062 10.2251 13.4446 16.0021
18.3221 19.8927 20.2794 18.8533 15.2821 10.4055
4.8633 -0.4396 -4.6469 -7.2440 -7.7292 -5.9846
-2.0893 3.7263 10.7609 18.1426 25.4763 32.8884
40.4790 47.6775 54.8134 61.6049 65.7965 66.6721
64.4239 59.1983 51.8130 43.0605 33.7206 24.6395
16.7082 10.6744 6.7819 4.4426 2.9327 1.7598
0.1653 -2.4567 -5.9155 -9.6736 -13.4620 -16.7882
-19.3540 -21.2432 -22.1951 -21.9898 -20.4680 -17.6647
-14.1101 -10.4782 -7.0617 -3.3451 0.3356 3.3921
5.6633 6.9550 8.3617 10.3310 12.4917 14.0089
14.3035 13.9702 13.1481 12.4889 12.2210 12.1142
12.2035 12.0277 11.6567 10.8060 9.7583 8.9537
7.4613 5.6974 4.4545 4.3431 5.4571 6.7994
7.9428 8.3000 8.0321 8.1122 8.5956 8.8524
8.5495 7.8811 6.9458 5.6219 4.1029 1.8712
-1.7579 -5.3806 -7.9658 -9.7058 -10.1808 -9.3320
-7.9814 -5.9155 -2.4696 1.3888 4.8964 7.2275
7.4521 5.4461 0.7499 -6.7570 -16.5737 -27.6987
-39.7701 -51.9124 -62.7952 -71.9067 -78.1689 -81.5329
-81.4013 -76.5854 -66.8580 -51.7991 -31.3398 -7.6122
14.6810 33.5549 49.2997 62.2125 72.4868 79.6392
83.7011 84.4560 82.1231 77.2539 70.5157 61.9059
50.8371 37.1960 21.7938 5.4194 -11.5397 -27.2117
-40.6373 -51.6537 -59.5021 -62.9508 -60.4549 -51.2596
-35.6383 -14.1525 11.5066 36.8968 60.5508 82.2382
99.2488 112.3614 120.9058 123.8150 123.1596 118.7893
112.6892 105.5588 96.6857 87.3247 76.9003 66.5653
56.7006 46.5460 35.1228 20.7369 4.2658 -13.9683
-32.8616 -50.5931 -66.4584 -79.1706 -88.4718 -94.2285
-95.9832 -93.8142 -88.4101 -79.8960 -68.6569 -55.8131
-41.5874 -25.8850 -9.2206 6.9596 22.0037 35.0289
44.1883 48.1203 46.3140 39.0520 26.6327 9.5843
-10.7986 -32.4427 -53.2344 -71.7392 -87.7527 -100.9887
-110.4879 -115.1840 -114.6915 -109.0701 -98.2544 -84.1328
-68.5934 -51.3904 -32.8837 -14.4986 2.8922 17.8590
30.7138 41.8268 50.8150 58.6938 62.5421 61.1657
55.1162 42.6287 24.4305 2.2367 -20.8795 -42.7235
-62.2216 -79.0141 -92.8899 -101.9756 -107.8208 -110.3488
-108.2194 -104.1124 -99.8149 -96.5908 -95.6371 -96.9646
-100.1859 -104.3960 -108.4210 -111.6294 -113.6926 -113.9771
-110.7751 -102.2067 -89.2718 -73.5749 -55.6676 -35.3280
-11.9485 13.0293 38.1084 62.7142 85.6547 105.7604
122.5381 135.7649 145.4583 152.1881 156.5621 158.9300
159.6379 158.1290 152.9569 144.8157 133.5250 116.8937
94.8380 70.3629 47.3387 27.7144 13.0072 2.8167
-2.6003 -5.4948 -8.1517 -9.6174 -13.7603 -20.4993
-28.7777 -37.7474 -45.2018 -52.0864 -56.4953 -58.0355
-57.3763 -54.5776 -50.6704 -44.8686 -35.9890 -24.9055
-15.9689 -13.6056 -18.3809 -27.3728 -36.7587 -44.3585
-51.4990 -59.1237 -65.5976 -70.5341 -73.1689 -74.3704
-73.2426 -68.5842 -62.1636 -51.8433 -40.1687 -30.6779
-23.0210 -19.5511 -19.1506 -20.6779 -23.2750 -23.7961
-24.3586 -26.0084 -27.1417 -27.4860 -28.4757 -31.5322
-34.4120 -38.4922 -44.0105 -48.5741 -52.4638 -53.8402
-53.2105 -53.0779 -53.5677 -53.0466 -51.0166 -47.7631
-41.1372 -31.3518 -19.6035 -8.2733 -0.1689 4.0384
2.7246 -3.4077 -11.8702 -21.9355 -33.3367 -44.8198
-54.8142 -62.0246 -67.1185 -69.7294 -68.2721 -62.4426
-51.9151 -37.7484 -22.3645 -7.8489 5.1459 16.0122
25.2268 31.9696 38.0808 44.9174 52.8156 61.3112
67.4426 74.8786 80.0379 85.8075 92.0255 96.8174
104.0803 105.6923 107.9801 111.1692 110.6674 110.6950
108.9385 105.4603 102.3670 98.7977 94.9927 92.3808
89.2129 87.2685 86.7281 86.7419 89.7782 94.9024
101.3156 108.4643 116.8090 126.5235 134.9234 142.2379
147.4505 149.7079 151.1736 151.5897 149.6757 144.8599
136.7159 125.4759 113.2535 99.0186 83.1349 65.8877
45.0675 24.4029 3.0505 -20.1145 -43.0991 -64.0556
-83.3843 -99.0195 -108.9559 -120.7981 -131.2758 -139.1104
-145.8836 -152.2875 -156.8309 -159.2475 -163.6344 -162.1890
-161.5823 -163.2302 -162.5130 -161.9211 -157.3234 -148.5019
-136.6560 -123.3979 -111.0955 -103.2912 -99.3868 -98.9808
-101.2355 -104.0176 -107.3273 -110.6738 -114.1465 -115.4961
-115.3820 -114.3683 -111.2225 -107.1846 -103.3585 -101.2309
-98.9882 -98.5187 -100.3471 -102.1773 -107.9451 -116.7951
-126.6662 -134.6656 -144.3047 -153.9456 -161.1459 -171.2029
-177.8251 -184.0568 -190.3825 -193.5541 -195.4967 -194.6184
-191.6641 -186.3465 -176.4717 -157.5112 -128.5793 -91.6351
-54.6246 -23.3828 3.7806 26.6511 48.2308 69.8087
91.0220 113.3676 134.2422 152.7525 168.8489 181.2627
189.7206 191.5453 187.9852 180.6809 168.3683 154.5137
142.3401 129.8203 116.6902 104.5480 92.7040 80.9428
67.8495 54.8428 41.6547 28.7510 20.6568 15.0952
13.0128 14.7528 18.3515 26.9714 43.0301 62.7409
85.8728 112.2933 134.7973 156.1312 174.6065 187.1916
195.4010 199.9590 203.6793 205.1956 206.1282 206.9384
207.8434 209.1636 209.4269 209.3541 208.4832 203.6563
195.7839 188.9040 182.1171 172.2009 159.5348 146.1110
131.1028 117.6974 106.5936 97.4167 91.6259 87.6920
84.9292 84.2553 84.2534 82.4518 80.7145 76.6250
72.9766 64.5583 50.5453 41.5184 24.9525 4.8403
-12.0111 -33.1470 -54.4598 -78.7701 -95.6665 -108.6742
-132.8584 -148.9999 -157.0389 -166.8014 -176.1504 -185.8769
-192.3039 -196.5812 -199.9470 -202.2753 -203.6259 -205.9275
-208.5559 -210.3364 -212.0783 -206.7561 -187.6050 -149.5238
-100.5929 -61.7337 -34.1321 -8.1103 11.6815 24.1773
32.4796 34.1368 30.9523 22.7319 12.8194 6.2221
1.6843 -0.3061 1.5867 5.2214 10.4810 14.8881
12.2256 1.6254 -14.7444 -33.2686 -57.3524 -84.2562
-107.5225 -129.5533 -149.1813 -163.6850 -169.9370 -169.4592
-163.9188 -156.7784 -149.7788 -140.3147 -132.0768 -125.9472
-121.9912 -120.0367 -118.9356 -117.4387 -113.1688 -106.8035
-99.4172 -89.4320 -76.1251 -60.8564 -44.8428 -27.7530
-9.9019 7.7034 25.4726 42.0809 59.1191 75.8149
90.0728 103.3263 115.1831 125.8331 135.6968 145.0007
153.6123 161.0787 166.1035 172.5314 182.5194 190.7462
197.1502 203.9113 210.2241 214.6404 217.0138 217.8525
217.6196 214.0263 204.7150 192.4337 178.1777 163.1916
148.6124 133.8177 119.6409 106.9591 95.8203 85.4180
77.3809 71.1058 64.8529 59.3162 55.7993 54.7516
54.8179 56.1851 58.8070 62.2244 66.7816 72.1802
77.0679 82.2299 87.9572 92.1976 96.4132 100.7089
104.9816 109.3850 110.9500 109.5083 104.4338 95.1639
82.7261 67.6737 52.9371 38.5586 23.8422 9.7399
-3.9923 -15.9219 -26.3730 -35.2433 -42.5283 -48.9912
-55.3777 -63.1267 -73.8116 -87.1985 -102.1294 -119.2753
-136.9065 -157.1559 -171.6016 -182.6602 -198.2503 -207.2965
-212.8028 -213.2742 -208.5403 -200.6734 -187.1198 -171.8722
-154.4326 -135.9205 -116.7519 -99.7118 -86.6231 -77.3312
-72.1351 -70.4761 -71.2126 -71.5606 -71.6352 -71.2117
-70.4715 -70.2091 -70.0323 -69.9743 -69.5352 -68.4599
-67.0743 -65.8416 -69.4036 -79.0620 -90.3701 -102.7021
-114.8821 -125.7622 -135.0827 -142.3723 -148.4190 -152.5370
-154.5035 -154.6250 -153.0176 -150.0200 -145.0697 -138.0738
-129.5193 -119.1768 -107.7987 -95.7890 -83.0612 -70.1180
-56.6831 -43.6202 -32.3028 -22.6987 -14.9148 -9.0116
-4.2768 -0.6062 2.4816 6.3326 12.6647 21.6953
32.5358 44.4203 55.1457 65.3021 75.7026 86.0201
96.6139 107.3494 116.5742 123.9540 127.9864 128.8426
130.3331 130.3856 133.6815 134.9207 140.1664 143.3270
133.6419 148.3840 161.6127 153.6547 151.5934 144.8092
138.2727 132.1394 122.9782 118.8233 114.8158 110.9003
110.9961 115.5661 121.5484 126.3274 131.3771 136.7684
142.3686 147.2213 150.1646 153.6335 156.0732 157.1955
158.0415 156.1643 153.0222 146.3062 136.9958 127.4331
116.0513 107.0981 99.3638 91.9794 87.0632 83.4755
81.1886 79.1301 75.5111 70.8821 66.5293 63.1653
62.3101 62.5724 62.1876 59.8961 54.2839 46.0884
36.6565 27.2504 17.8626 8.5918 0.6486 -4.5935
-7.8876 -10.7424 -13.2724 -15.5795 -17.8940 -19.3541
-19.8383 -20.7516 -21.9171 -23.4776 -26.3169 -30.6429
-36.8821 -45.0435 -54.9873 -66.2651 -78.5363 -91.8579
-105.9399 -119.6896 -131.0650 -141.0751 -152.6604 -165.3882
-176.9993 -186.1007 -191.4910 -193.2043 -191.9255 -187.2229
-180.9055 -173.5883 -163.5009 -150.5917 -135.1950 -119.3094
-105.7310 -95.7089 -89.1963 -85.2146 -83.2048 -82.5208
-81.5210 -79.6337 -76.9445 -72.9314 -68.1837 -63.0981
-58.3403 -54.2462 -50.7883 -48.7574 -47.5513 -47.7042
-49.2333 -50.4937 -50.6180 -49.1081 -45.9356 -40.6917
-34.2159 -28.2180 -23.2235 -18.5062 -13.2134 -6.7616
1.5821 12.0829 24.2012 36.6086 47.4694 56.2882
63.8033 69.4965 74.9320 80.9511 87.2206 94.6161
101.7833 108.3133 112.8825 114.2975 112.6799 107.4553
99.8352 90.0212 78.7683 67.1627 55.7993 45.6456
35.9163 26.6289 18.3616 12.1041 8.4105 6.7533
6.3731 6.1881 5.6476 4.6874 2.9842 0.7333
-1.3216 -3.4786 -4.2621 -3.4832 -1.4100 3.4667
10.5712 18.5062 25.8998 31.6648 35.5076 39.0806
42.8239 46.3122 49.9468 53.2620 56.4336 60.0738
63.9893 67.7685 71.7871 75.9456 80.1400 84.6797
89.6935 94.9604 100.3526 105.3774 110.3268 115.6582
120.1343 124.6160 128.9779 132.0004 134.2173 134.5846
131.7942 125.4455 114.7246 98.6356 77.7169 54.2775
30.1228 7.2293 -10.6559 -21.7846 -25.9311 -23.5439
-17.4410 -9.7205 -1.9375 3.9840 5.7609 1.8519
-5.4285 -14.0466 -26.1429 -42.2807 -60.5047 -80.5580
-99.7717 -113.9136 -125.2862 -138.8702 -155.7878 -173.5579
-189.0255 -198.7705 -200.2601 -195.8272 -189.4592 -183.1289
-176.4800 -168.7283 -159.8929 -148.3877 -131.8393 -111.0292
-90.2606 -75.2312 -66.9059 -62.0523 -60.6133 -62.6700
-68.0723 -75.8572 -84.2258 -93.1440 -101.0237 -106.5015
-109.1981 -109.5866 -108.7912 -106.8486 -106.3607 -109.1705
-114.1465 -119.6970 -121.4481 -119.2790 -113.6926 -103.5435
-91.9214 -78.3485 -63.1672 -48.8071 -34.9101 -22.7264
-13.0293 -6.9043 -6.8031 -9.7077 -14.9360 -23.6295
-31.5194 -35.9467 -36.2137 -33.1903 -27.8212 -18.6866
-7.0102 5.3659 19.0355 34.8797 53.5511 75.6132
112.6145 152.0693 180.0355 205.4442 219.6625 220.2471
213.2005 219.7720 219.5732 198.4501 196.9697 200.7959
201.0859 205.7958 204.5088 196.6852 183.2798 171.5592
162.0960 153.5414 149.5532 148.3684 146.3743 140.4058
131.2777 120.8846 110.0368 101.2244 93.8731 87.6423
81.7999 74.5462 67.1765 60.3233 54.6172 50.9577
49.1578 49.1698 50.6005 53.4250 57.8091 62.2539
67.2115 72.0752 75.5129 79.3786 81.6618 82.9461
84.9798 85.7752 85.4060 82.5705 75.9069 65.6483
52.9868 41.0728 31.8526 25.3382 21.2423 18.9775
17.8857 16.5047 14.0963 10.8962 7.1952 3.7134
0.2518 -3.5486 -8.0791 -12.4088 -16.4762 -22.3020
-28.8910 -36.6298 -47.3994 -64.8740 -97.1083 -149.3986
-205.6320 -231.0673 -226.7367 -227.9998 -244.4285 -258.7895
-267.9803 -277.2446 -279.8565 -278.7241 -279.8813 -281.2890
-284.2507 -285.0507 -281.7428 -277.9903 -273.0180 -268.7066
-263.0742 -253.1276 -240.3685 -221.9346 -201.0776 -181.4515
-162.9255 -148.3868 -136.8973 -128.0334 -122.9717 -120.4786
-119.3601 -118.9614 -117.7803 -114.9594 -111.7786 -107.9092
-102.7435 -96.3018 -88.1155 -79.2617 -70.5304 -62.2521
-55.1788 -49.9505 -45.9273 -42.8625 -41.2947 -39.4783
-37.4630 -32.9418 -24.2786 -14.1718 -1.7856 9.6331
18.8864 28.8550 38.1056 47.8634 57.6516 65.9199
73.9285 79.8629 85.1998 92.5990 100.7567 110.5873
121.0697 130.7382 139.7466 147.5251 155.3873 164.1628
173.6831 184.3883 196.7911 209.9516 224.4875 240.1420
256.3001 273.4829 288.2600 303.1292 318.2681 328.3629
336.0659 343.2533 348.2689 349.7668 349.3857 348.0876
344.8303 340.4546 334.2670 325.2503 313.2249 299.1143
282.9065 263.3006 240.5968 216.8877 194.8541 174.3699
156.8217 143.2193 132.2333 125.0358 117.9551 109.7256
102.4553 94.4541 86.0892 77.3873 69.1347 60.9760
53.0429 46.2440 39.7775 34.7287 30.7617 27.7843
25.7147 23.9259 22.5505 21.2810 19.6735 19.0429
19.1165 16.7634 14.8632 14.0632 12.0727 9.9258
7.8452 6.0371 3.3801 1.2056 -1.0675 -4.2041
-7.5469 -12.0332 -16.9733 -24.2767 -33.8164 -46.3969
-61.4373 -75.9208 -91.9877 -111.6341 -135.7704 -162.6622
-190.4314 -217.1243 -242.8248 -266.9105 -283.8235 -294.6060
-305.8626 -319.4135 -330.4408 -338.5627 -345.6608 -350.8191
-354.8322 -357.6696 -360.1857 -362.2967 -362.6631 -361.3779
-358.0618 -352.2526 -341.5078 -322.9054 -293.7213 -254.8161
-215.4110 -178.6472 -145.4325 -120.3313 -100.5248 -84.3833
-73.6744 -67.9453 -64.9762 -63.7269 -65.2736 -68.3762
-71.7310 -73.9534 -72.8974 -68.4461 -62.1434 -54.7065
-46.8406 -39.4267 -31.5157 -24.4323 -17.9446 -11.7101
-6.2553 -2.0636 -0.5556 0.6872 -0.0990 -2.1262
-1.9845 -1.1531 0.6734 3.4749 6.0030 7.6979
9.1212 10.4533 11.8426 13.2410 14.3246 14.5069
14.7978 16.5470 17.9961 19.2114 21.3537 23.1986
24.9294 28.1811 32.2752 37.1536 42.9049 49.1145
56.0258 63.4774 71.3930 80.0489 90.1013 101.1508
113.4348 126.9682 138.6299 148.6059 158.5957 167.2856
176.1476 185.5658 196.1393 209.3384 223.0182 235.7064
246.2532 252.6838 253.7564 249.8869 241.5110 229.9257
217.4879 204.7076 193.2135 183.4778 173.2025 162.7487
151.7802 139.4649 124.6132 108.4514 93.4128 78.4166
65.2202 52.2189 40.4016 31.4880 22.8543 15.7921
9.9663 5.6706 3.0091 1.2295 -0.2270 -1.6816
-2.8314 -4.5678 -6.4965 -8.8589 -11.1881 -12.6712
-14.9802 -18.0799 -20.4626 -22.6785 -25.5500 -28.1582
-30.2793 -32.4575 -34.5897 -37.1555 -39.5510 -41.7108
-44.6062 -48.3422 -53.3882 -60.2884 -70.6501 -85.1778
-107.0871 -132.1284 -147.5509 -158.3481 -170.0273 -177.0131
-182.6271 -191.6963 -201.5361 -208.9684 -216.3998 -224.3596
-230.3437 -234.9460 -239.2997 -244.5731 -248.2068 -248.5714
-247.9702 -245.6051 -240.4790 -232.9519 -221.5673 -204.1783
-178.6067 -144.2946 -110.3820 -83.8548 -63.3835 -44.9846
-28.4445 -15.8548 -2.3389 3.3589 -2.2091 -11.3142
-24.4821 -38.0246 -50.5269 -56.5543 -55.6171 -54.2315
-48.8310 -42.8046 -31.3224 -17.1142 -12.1879 -2.9677
7.3149 12.9188 17.6610 20.8786 23.7621 26.3564
34.1570 45.6769 72.6110 113.7589 159.4381 196.4587
219.5750 252.1287 262.6930 251.1335 242.6093 223.1231
211.6078 209.4507 203.0477 193.7235 184.2253 175.6560
163.9612 151.7729 140.7529 121.7436 91.8781 63.3568
44.7397 33.9793 31.5930 34.4792 34.5317 38.6893
43.7758 47.5403 52.6010 50.2304 44.9376 39.6127
35.2553 33.4913 32.4418 31.8894 30.1025 29.5593
29.4949 29.3227 30.0261 29.2969 26.9677 21.7707
14.7223 8.4694 5.2812 8.0155 13.4703 16.4099
17.3019 17.9169 16.0131 10.5831 2.6242 -8.8110
-21.6327 -34.6045 -47.6922 -59.2241 -69.9072 -77.7123
-83.1367 -86.6342 -86.1260 -83.9929 -80.1401 -73.6671
-66.1602 -58.2593 -50.7101 -43.3588 -36.6676 -32.1859
-28.3543 -26.2782 -26.9245 -29.3090 -32.6048 -35.5242
-38.4592 -39.5188 -40.7755 -42.2734 -42.5523 -42.7622
-41.8775 -42.3387 -42.4906 -43.3312 -47.0036 -50.8592
-57.1647 -66.4797 -78.3292 -92.0641 -106.0155 -120.3396
-132.5970 -143.4808 -155.8845 -167.2396 -180.1681 -193.4161
-202.9042 -211.3013 -215.9284 -219.5815 -221.1309 -217.7844
-217.8756 -214.8071 -204.6819 -194.8053 -182.8720 -168.6003
-150.7621 -131.0770 -112.2565 -91.4473 -73.9368 -61.9906
-52.9362 -47.3000 -44.9119 -43.3229 -42.6398 -45.7046
-49.9699 -52.1260 -52.1315 -49.4212 -43.0356 -33.6470
-23.2355 -13.8239 -5.9607 0.5546 5.9974 11.3473
16.6244 21.7864 26.4715 30.6935 34.9331 39.5758
44.5638 50.6170 57.8836 66.8589 80.1713 97.6164
118.6659 141.8383 167.8840 190.0078 198.5421 199.3909
200.4432 208.7216 225.7193 242.4629 254.7967 266.0993
274.4201 277.0356 276.2144 273.6347 271.7769 270.2505
267.1258 261.9445 254.4524 245.7689 235.8481 224.7259
212.6702 199.8623 186.3428 169.3165 154.0137 140.6442
121.4112 104.4218 91.2152 76.9702 64.7405 53.4968
43.6211 35.9513 29.5961 24.5612 20.1403 15.8179
11.8509 7.8765 3.8284 -0.2095 -4.8384 -9.1921
-13.0413 -16.9457 -20.5040 -23.8468 -26.7229 -29.1304
-31.6575 -33.8339 -35.4809 -36.0876 -36.5884 -38.1646
-39.4525 -41.4835 -44.6081 -47.4041 -50.5968 -54.1431
-57.8561 -62.9803 -70.4725 -80.1355 -92.4619 -105.4686
-115.5855 -124.5976 -135.3184 -146.8641 -157.9725 -169.7318
-182.2506 -195.0567 -209.1691 -221.4532 -230.9541 -241.3012
-251.8756 -262.1241 -270.3500 -274.4754 -277.5033 -280.6261
-282.0089 -282.6451 -282.9480 -281.6204 -279.0620 -274.8464
-267.4076 -255.3151 -236.7551 -209.3228 -174.4363 -141.1598
-116.4444 -95.5138 -74.9919 -55.0030 -37.3277 -25.6402
-18.7502 -16.1347 -16.4661 -20.4653 -27.4751 -34.5023
-40.8519 -45.5278 -46.7016 -44.1275 -40.9292 -35.8584
-29.9635 -24.8641 -18.9822 -13.9638 -10.0253 -5.7057
-2.1318 -0.5078 0.4211 0.3429 -0.2454 -1.3612
-2.7468 -2.8103 -3.5707 -3.2375 -2.2478 0.3678
5.0685 9.5097 17.5514 24.8953 36.0397 48.6800
65.2966 90.3259 117.1956 154.8901 192.0848 238.4250
278.0704 288.5684 288.6577 269.7625 259.8878 272.6368
290.5542 305.6103 305.5228 301.5807 297.6146 291.2484
285.8129 284.0637 285.0295 284.5038 284.8214 284.5572
281.7409 278.9330 273.8428 264.3243 251.4548 233.5318
209.4839 179.8127 149.9574 125.3589 103.8777 85.9584
71.0818 57.7842 47.4859 38.9544 32.4077 27.9353
26.1990 26.4374 26.2625 26.8959 27.1159 26.9088
26.8655 25.5103 24.0042 22.0497 19.1856 15.9799
12.4253 8.9573 6.0324 4.0733 2.1501 -0.2297
-1.5214 -2.5516 -3.2135 -2.7624 -3.0671 -3.2899
-3.2283 -3.5284 -3.7751 -4.7630 -6.0887 -6.7248
-7.7633 -9.3293 -10.9616 -12.0130 -13.8920 -16.8215
-18.1076 -20.7461 -25.0022 -29.2335 -35.0768 -42.4713
-51.0719 -60.8555 -71.6684 -85.2643 -100.8369 -117.5603
-134.2717 -147.4524 -157.1237 -163.2781 -167.6318 -170.8384
-176.6034 -185.5152 -193.4888 -202.1861 -209.2400 -215.3632
-221.3040 -224.3983 -225.4395 -224.1948 -220.4727 -214.2013
-208.7014 -201.4459 -191.0943 -182.9549 -174.4050 -164.9666
-154.2587 -142.2315 -131.1489 -120.9068 -111.1361 -101.7566
-94.5812 -88.9763 -83.7959 -79.4818 -76.0303 -71.4778
-66.8654 -63.3403 -59.5187 -55.8564 -51.8158 -48.2290
-45.7653 -43.4499 -41.2100 -39.4194 -37.3332 -34.9819
-32.9510 -29.8807 -26.9199 -25.3005 -22.4373 -18.4989
-15.8023 -13.3663 -10.5713 -8.7779 -6.4569 -3.4842
-0.6845 2.5902 5.0188 9.1782 13.9490 17.7613
22.7751 26.3232 29.7526 34.5031 38.1636 41.1179
45.3316 51.0700 57.7860 65.6086 73.1938 80.0451
88.2692 96.5347 103.2967 109.6602 115.2061 120.2116
123.3160 125.9665 129.7310 132.5269 134.3618 135.0946
136.4995 137.1734 136.4268 136.2325 134.9206 133.0747
129.0893 124.2615 120.2677 112.3181 102.1598 92.3651
83.1366 72.9802 62.3229 52.8376 43.0632 35.4771
27.9795 22.7981 22.6361 21.0406 18.0108 17.2228
17.5763 18.2612 20.4965 22.0230 23.1682 23.9867
25.5057 27.6066 28.2041 30.1273 30.3593 28.4297
28.4490 29.1551 28.5245 28.6699 29.8640 30.4864
32.0008 33.4462 35.0085 37.3617 39.1643 40.9549
42.7759 43.9083 43.2473 41.3996 41.0056 40.6161
38.8273 36.5966 35.9430 33.3431 30.3915 28.6055
23.0412 21.1401 16.8701 8.2097 3.1122 -2.2653
-9.5991 -19.2676 -26.9015 -33.3856 -39.9129 -45.7156
-51.7467 -56.1676 -59.7995 -61.1087 -62.8634 -61.5055
-57.7134 -62.7428 -67.1932 -68.3025 -70.9678 -72.2530
-74.0326 -74.6466 -73.0862 -68.8816 -63.5051 -58.9378
-52.7392 -45.4910 -38.1259 -30.5150 -24.0494 -19.0614
-14.9774 -12.0102 -10.0714 -9.4987 -10.1607 -11.4183
-12.6537 -13.9822 -15.5289 -16.3786 -16.3483 -15.6707
-15.1183 -13.7180 -11.7432 -10.2509 -8.3608 -6.3575
-4.2189 -2.3620 -0.8770 0.8492 2.9529 4.9497
6.7901 8.4592 10.0639 11.8554 13.4951 14.5152
15.0500 17.1242 18.2336 19.0806 21.2653 23.3284
27.0791 30.2359 34.2011 39.1808 43.6017 49.5021
55.4770 62.1922 69.9743 77.7297 84.2331 87.4443
89.9162 95.7181 102.3503 109.1722 113.7846 113.4808
112.8787 110.4639 108.2074 105.2080 100.7401 96.4196
91.9177 89.3307 83.4819 82.8973 83.9937 76.2411
69.8426 66.1435 60.7274 53.0963 47.0468 41.3213
35.4265 31.9621 27.5698 22.5993 19.4139 17.6867
16.1079 15.0141 14.4636 14.9718 16.3702 17.9003
19.7168 22.3682 25.8482 27.3866 29.1293 31.3444
31.9511 32.5477 32.4188 31.5810 30.1954 29.0051
28.3956 27.6223 27.0643 26.5562 26.1805 25.1816
23.7685 23.5586 22.8257 20.8804 20.0316 19.8935
19.5151 18.7169 17.2494 15.8252 14.8770 13.5678
10.6181 8.4509 8.1057 6.0287 3.4565 1.1015
-2.7772 -7.4429 -13.2163 -20.6642 -29.1120 -35.2931
-39.3771 -42.3332 -42.1417 -40.3861 -38.7299 -39.1257
-40.8657 -41.8416 -43.6691 -47.8211 -53.2630 -57.0920
-59.4294 -60.2820 -60.1043 -59.0170 -57.9113 -55.1770
-52.0966 -52.2384 -47.0975 -42.5441 -42.5192 -40.7553
-39.0907 -35.9532 -32.6877 -29.5345 -26.2285 -22.2339
-17.7495 -14.9820 -12.4687 -9.9084 -8.1215 -7.0830
-6.2599 -5.5142 -4.7703 -3.9519 -3.9270 -4.0642
-3.1371 -2.3030 -1.7396 -1.2581 -0.8604 -0.4774
0.2563 1.2828 2.1372 3.0716 3.3432 3.6940
3.4261 2.7872 2.4189 1.3666 0.7093 -0.1432
-0.9939 -1.6715 -2.2174 -2.8766 -3.6490 -3.3765
-4.0053 -3.7604 -1.2121 -0.4627 0.3484 2.8838
3.6728 4.6496 6.0628 6.5627 7.4143 7.1040
6.7560 7.0727 6.8011 5.7249 5.3530 6.3602
6.7008 6.6198 6.1613 5.2094 3.4795 0.8557
-1.9026 -4.5770 -7.3960 -11.0086 -14.8937 -19.1102
-23.7833 -28.5283 -33.8928 -39.7601 -45.4487 -51.2238
-56.4549 -60.7404 -65.1770 -69.4220 -72.4334 -73.6386
-73.0576 -71.1814 -67.7925 -62.6020 -56.9391 -51.6179
-46.2395 -41.1143 -36.7551 -33.5366 -30.6660 -27.6344
-24.4084 -21.9531 -20.3807 -18.3074 -16.9494 -16.3299
-15.6873 -14.7703 -13.5035 -12.8397 -12.1769 -11.0454
-9.8725 -8.9648 -8.4667 -8.1749 -8.0828 -8.3811
-8.9151 -9.3339 -9.6902 -10.0668 -10.4166 -10.6201
-10.5851 -10.5354 -10.4976 -10.5197 -10.7434 -11.1310
-11.6834 -12.2956 -13.3000 -14.5245 -15.5344 -16.6420
-17.5175 -18.4317 -19.1350 -19.3901 -20.1615 -20.6311
-20.9165 -21.2884 -21.1098 -20.6062 -19.4922 -18.2669
-17.2155 -15.7489 -13.5228 -11.0601 -8.8764 -6.8786
-5.0060 -3.0589 -0.9405 1.6133 4.1221 7.2559
10.7184 14.0429 17.5275 20.5389 23.9240 27.8285
31.6528 34.8769 38.4977 41.9925 45.0232 47.1802
49.3944 52.7915 55.1180 56.5413 56.6149 57.2575
56.6646 54.7746 54.2802 53.1810 52.7059 52.4997
52.3386 52.2576 52.3864 52.2990 51.5883 50.2616
48.4240 47.7372 46.4760 45.1631 44.3125 43.5216
43.2629 42.3359 41.8755 41.8452 41.7697 41.6003
40.8932 40.4329 39.3696 37.5973 36.0359 34.4791
33.1553 32.1849 31.4410 30.9071 30.4624 30.0693
29.6504 29.2352 28.8181 28.3228 27.8800 27.6029
27.3866 27.2061 27.2153 27.2126 27.1094 26.9539
26.5313 25.7911 24.7222 23.6055 22.2918 20.7810
19.4838 17.9767 16.5037 15.5103 14.9009 14.6726
14.4903 14.0824 13.5770 13.1765 12.9215 12.8258
12.7770 12.7936 12.7402 12.5284 12.6242 12.9326
13.2649 13.2207 12.5597 11.7201 10.5776 9.1847
7.6684 6.1871 4.7859 3.3543 2.1225 1.1098
0.2490 -0.4636 -0.8853 -1.1403 -1.3345 -1.5960
-1.8786 -2.0618 -2.5387 -3.1638 -3.5524 -3.5735
-3.6067 -3.7549 -3.4916 -2.9245 -2.3353 -1.8234
-1.4202 -1.1320 -0.9304 -0.6883 -0.4728 -0.4461
-0.5373 -0.6772 -0.9838 -1.6485 -2.8361 -4.2042
-5.7785 -7.7486 -10.2785 -13.6692 -17.8416 -23.3046
-30.0612 -39.5833 -49.0152 -53.1590 -54.4240 -49.2178
-41.1060 -41.7532 -44.8843 -47.0248 -50.7543 -53.3284
-55.5471 -59.3356 -64.9220 -71.0414 -77.2005 -83.3393
-88.5059 -92.1185 -93.8769 -94.8196 -95.3776 -95.1548
-94.6097 -93.8263 -92.8504 -91.6011 -89.8850 -87.8339
-85.6602 -83.4286 -80.9972 -78.0254 -73.5889 -67.8505
-61.1400 -53.9977 -47.8046 -43.1167 -39.7904 -36.7726
-34.2758 -32.3581 -30.3447 -28.7686 -27.5662 -26.7156
-26.2322 -26.1595 -26.5287 -27.0912 -27.8995 -28.9435
-30.2269 -32.0138 -34.3145 -36.8076 -39.4489 -42.0561
-44.8429 -48.0826 -51.4549 -54.7471 -58.0126 -60.6465
-62.4648 -63.5769 -63.5364 -62.7244 -60.6226 -58.1507
-55.1789 -50.7874 -46.4061 -41.5857 -35.9136 -30.1109
-24.1682 -18.0901 -13.8828 -9.3735 -5.9405 -4.9812
-2.9466 -3.3811 -3.8129 -3.4520 -4.5908 -4.0596
-3.4235 -2.2671 0.0151 1.7183 3.6019 5.2471
6.4145 7.6012 8.5025 9.1690 9.5962 9.7674
9.5262 9.2546 9.0383 8.5807 8.3423 8.1443
8.0587 8.3865 8.8385 9.3633 10.1854 11.1355
11.8646 12.5385 13.3073 14.0474 14.7655 15.6595
16.5866 17.4796 18.3385 19.1174 20.0656 21.0415
21.6556 22.5661 23.9424 24.5399 25.1752 26.4098
27.3792 28.1949 28.7546 29.1266 29.1247 29.2398
28.8283 27.8413 28.0227 27.5062 26.8222 26.5248
25.7920 26.3619 26.8305 27.0441 27.1352 27.4666
28.3606 28.7776 30.2958 31.3563 31.8931 33.9719
35.9374 37.9260 39.7949 39.3898 38.7435 38.7463
38.2022 36.7006 35.2396 33.6229 30.6843 29.7646
28.9268 26.9318 25.8003 24.0308 22.0441 19.4949
15.3188 11.1520 7.7770 4.2224 1.3031 -0.6975
-2.3371 -3.7015 -3.7346 -1.8298 0.1311 3.3681
8.1572 12.3526 16.9962 20.8951 22.7613 24.1514
24.4967 23.8771 23.2096 22.2024 21.2965 20.6355
20.1955 20.3685 20.7598 21.4438 22.6075 23.7335
24.7158 25.2875 25.4781 25.4974 25.3105 24.9708
24.4976 24.1266 24.1257 24.2564 24.2223 24.4681
24.4829 24.4313 24.6863 24.9174 25.6217 26.0912
27.0275 28.3965 28.9443 29.8658 30.7828 31.0645
31.3701 31.4926 31.6187 31.3674 30.3694 29.7728
28.8135 27.4188 26.0001 23.9719 22.3636 20.7046
19.2619 18.2492 16.9567 16.0646 15.3014 14.6827
14.1423 13.4361 12.9307 12.7070 12.4409 11.7818
11.1392 10.6604 10.2922 9.9267 9.2767 8.4978
7.7374 7.0460 6.3988 5.8004 5.2416 4.6892
4.2003 3.8146 3.5678 3.5936 3.8063 4.0447
4.5106 5.0243 5.3962 5.7516 5.9495 5.9753
6.0370 6.0140 5.8823 5.8234 5.8934 6.1419
6.6639 7.3728 7.9915 8.5558 9.0751 9.4884
9.7425 9.8760 9.9893 10.0399 10.0399 9.9727
9.9055 9.6652 9.3098 8.9057 8.1664 7.2780
6.3528 5.3069 4.1662 2.8985 1.4890 -0.1396
-1.9707 -3.8958 -6.0114 -8.1869 -10.3973 -12.6731
-15.0272 -17.4319 -19.9848 -22.9041 -25.6375 -28.7898
-32.7632 -36.6658 -40.3272 -44.0088 -47.7761 -51.0259
-53.1314 -53.7961 -53.9517 -54.5704 -55.8335 -57.8626
-59.9763 -62.1214 -64.3263 -66.6924 -69.7701 -73.1681
-76.5883 -79.9514 -82.9775 -85.3887 -87.0670 -88.1165
-88.5814 -88.2371 -87.2668 -85.8545 -84.0003 -82.1517
-80.7238 -79.9348 -79.2812 -78.8706 -78.8227 -78.8807
-79.0307 -78.7978 -78.2767 -77.1195 -75.6539 -74.1615
-72.4068 -71.0083 -69.3383 -67.7769 -67.0266 -65.9052
-64.2582 -62.7419 -61.6482 -60.7174 -59.1321 -57.0487
-54.5308 -51.4908 -48.4877 -45.1854 -41.3049 -37.3747
-33.3561 -29.2713 -25.6440 -22.2947 -19.5595 -17.2809
-15.1091 -13.2872 -11.6641 -10.6707 -9.8532 -9.2824
-8.8672 -8.3415 -8.3857 -8.0294 -7.3923 -6.8225
-5.8217 -4.7538 -3.7052 -2.8821 -2.2267 -1.7847
-1.7175 -1.7083 -1.8731 -2.2552 -2.4789 -2.8407
-3.2661 -3.3959 -3.5781 -3.5294 -3.2320 -2.7800
-2.0462 -1.4598 -0.7748 0.1532 1.0296 1.8573
2.8405 4.0309 5.3143 6.8352 8.3533 10.2544
12.6711 14.7536 17.3249 20.6733 23.3698 27.1407
31.8829 36.8387 43.6781 50.2082 57.8872 67.2630
77.5014 86.5144 90.9215 97.1763 99.1980 94.5902
95.5182 96.6792 94.6455 95.8589 98.3004 98.8887
100.5735 103.5674 107.7820 112.5436 115.8965 119.8258
123.5056 125.6230 126.7232 128.1419 129.7015 130.8974
130.9001 128.2690 125.2898 121.2068 114.8424 106.4987
95.5551 83.9468 72.6772 62.0715 53.4240 46.7356
41.5616 37.9969 35.7293 33.7850 32.1260 31.6030
31.1068 30.4210 30.4090 30.1217 29.5896 29.1624
28.5364 28.1194 27.6830 27.1987 26.9078 25.6962
24.7903 24.1956 22.9040 22.5633 22.3847 21.7467
20.9550 20.1918 19.8530 19.0704 18.2557 17.6287
16.6280 15.9449 15.2820 14.6716 14.1358 13.4610
13.1876 12.7917 12.5137 12.2909 12.0883 12.1804
12.0404 11.9465 11.9788 11.9456 11.7670 11.7201
11.6786 11.4310 11.4181 11.1879 11.0968 10.9265
10.2968 9.8963 9.3476 8.9342 8.3266 7.4382
7.2402 7.1049 6.4218 5.6448 4.6431 2.7623
0.5712 -1.5979 -4.0090 -6.5168 -9.6405 -13.2016
-17.2109 -21.9476 -27.4908 -34.6819 -42.2053 -48.7400
-54.4479 -59.3881 -64.8594 -71.7273 -77.1637 -77.8045
-75.3565 -74.5160 -76.6601 -80.3869 -84.8704 -89.0749
-93.0944 -96.6757 -100.1456 -104.9918 -110.5285 -116.1784
-121.6461 -126.1747 -128.7497 -129.4393 -129.0756 -127.9322
-125.6573 -121.2686 -115.3950 -108.9837 -101.8920 -94.6309
-88.0125 -81.4005 -74.6393 -68.1847 -61.9355 -56.1981
-50.5877 -45.6614 -41.2616 -37.4962 -35.3852 -33.1923
-30.7830 -28.7171 -26.5223 -24.2750 -21.9421 -19.8918
-17.9714 -16.1504 -14.9931 -13.8782 -11.8795 -10.0456
-8.9317 -7.8177 -7.0637 -6.4174 -5.7104 -5.2445
-4.5605 -3.8580 -3.2375 -2.4973 -1.5454 -0.6966
-0.1764 0.5104 0.8206 1.0398 1.4227 1.4117
1.8573 2.6518 3.7593 5.3916 7.6057 10.5582
13.2207 16.6234 20.5388 23.3514 27.0109 30.5673
32.6010 35.1374 36.9059 38.3798 41.1206 43.5768
45.5461 46.5717 46.6140 46.8773 47.5973 46.6186
46.3940 47.4923 46.0966 45.9585 46.9620 46.8792
46.9583 46.9077 47.5595 48.2638 47.7805 48.0778
47.6866 47.1471 48.3540 47.5052 46.7576 46.6775
46.1031 45.6547 45.6492 46.3894 44.8473 43.3881
42.7335 41.6076 40.6069 39.1311 38.0576 36.8626
35.6419 34.3880 32.8385 32.0864 31.5008 30.1668
29.1311 28.6414 28.0798 27.5025 26.6500 26.0590
25.6300 24.4294 23.0393 21.9014 20.3750 19.2417
18.0669 17.0137 17.0183 16.2054 15.5849 15.0721
14.6670 13.9609 12.7051 12.3590 10.5591 9.5759
8.3892 6.1382 4.6284 2.0175 0.7718 -1.0289
-2.7413 -2.8030 -3.8442 -4.1655 -4.7161 -5.5115
-6.5426 -8.2246 -8.6601 -8.6196 -8.2789 -7.3031
-4.8910 -1.1477 2.1307 4.7720 6.4448 6.7026
6.0738 5.4514 5.2425 5.4901 6.0222 6.4457
6.8757 7.7125 8.8550 9.8318 11.0268 12.4114
13.8136 15.3759 16.2100 16.5681 16.4843 16.0765
15.6493 14.5105 13.8826 13.0172 12.1445 11.8996
11.1704 11.5470 11.9824 11.7044 11.6179 11.5322
11.4761 11.2211 10.9550 10.4735 9.8742 9.5142
9.2049 8.6921 8.2097 8.0467 8.0292 7.7576
7.4778 7.3728 6.8250 6.4199 6.0084 5.3318
4.8834 4.1248 3.5420 2.9961 2.1878 1.6943
0.8584 0.1191 -0.4213 -1.2195 -1.7940 -2.4495
-3.0792 -4.0090 -5.2233 -6.2047 -7.3095 -8.3369
-9.2806 -10.1847 -10.9009 -11.4920 -11.8713 -12.0618
-12.0867 -12.0103 -11.8326 -11.4091 -10.9709 -10.5713
-10.1009 -9.7934 -9.6765 -9.5734 -9.4979 -9.6037
-9.8118 -9.9407 -9.8808 -9.6516 -9.2244 -8.4769
-7.6032 -6.7755 -6.0519 -5.3863 -4.8127 -4.4436
-4.2705 -4.5089 -4.6581 -4.6194 -4.8100 -4.7805
-4.8367 -5.2040 -5.3099 -4.9803 -5.1027 -5.2353
-4.9131 -4.6479 -4.2226 -3.8590 -2.9540 -2.5038
-2.5286 -2.5664 -2.0904 -1.7369 -1.8437 -0.5382
-0.5898 0.4441 2.7705 2.9031 3.5678 4.6744
5.6245 6.5350 6.8425 7.4547 7.8138 7.8699
8.6285 8.6819 9.2675 10.4256 10.3575 10.6217
11.4043 12.0478 12.0533 12.0819 12.6342 13.1295
13.9102 14.5869 15.0067 15.2636 15.4274 15.4772
15.0242 14.4470 13.9185 12.8101 11.3527 10.0841
8.2041 6.1198 4.1828 1.6317 -0.5217 -2.3197
-4.2594 -5.6229 -6.9753 -8.2596 -9.0118 -9.7289
-10.8144 -12.0802 -12.9889 -13.6057 -13.9363 -13.7991
-13.1519 -12.1079 -10.9755 -9.9306 -9.0311 -8.3747
-7.9291 -7.6327 -7.4669 -7.4992 -7.6741 -7.3519
-7.1079 -7.2653 -7.1493 -7.0269 -6.8750 -6.7056
-6.5159 -6.4727 -6.7682 -7.0932 -7.6004 -8.3425
-9.2447 -10.1718 -11.2747 -12.5424 -13.8276 -15.4056
-17.0112 -18.5477 -20.1828 -21.7405 -23.1214 -24.3450
-25.4985 -26.6567 -27.7513 -28.8275 -30.0833 -31.4237
-32.8213 -34.1903 -35.4092 -36.6474 -37.7678 -38.5090
-39.0190 -39.5161 -39.8918 -40.1891 -40.5436 -40.8916
-41.0232 -40.9772 -40.7056 -39.6947 -38.5485 -37.7319
-36.3197 -34.5907 -33.1656 -31.7773 -30.3438 -28.7677
-27.0544 -25.3126 -23.3360 -21.4127 -19.4361 -17.3969
-15.2601 -13.0874 -12.4301 -10.3421 -8.2780 -8.0515
-5.4618 -3.8452 -3.1887 -1.5767 -1.0041 0.2287
2.3673 2.7715 3.4021 5.7700 7.0460 7.1813
7.5717 8.5825 8.8320 9.1800 9.5961 9.6900
10.5923 11.0378 11.1851 11.1483 11.7928 12.6517
12.2153 12.7171 13.7105 13.7952 13.9793 14.0658
15.1172 15.7469 15.3363 15.4348 15.1264 15.5213
16.0700 15.8905 15.7524 16.2533 16.6602 16.4659
17.0993 17.0404 16.7393 17.2613 17.2319 17.2172
17.2291 17.5053 17.4841 16.8931 16.9005 16.8369
16.7044 16.5838 16.4245 16.3711 16.5433 16.6887
16.5340 16.4199 16.0176 15.7469 15.9200 15.8215
15.2903 15.3869 15.3832 14.8898 14.7443 14.3604
14.1395 13.8274 13.2023 12.6959 12.2245 11.7661
11.1842 10.6954 10.3244 10.0288 9.8355 9.3991
8.9544 8.8366 8.5705 8.2014 7.8837 7.5643
7.2863 7.0809 6.8849 6.7164 6.6289 6.3417
6.0885 5.9624 5.7782 5.7773 6.0342 6.4162
6.9180 7.5735 8.2529 8.9093 9.6366 10.1605
10.4956 10.8749 11.1907 11.4466 11.3822 11.4199
11.5617 11.1446 10.9375 10.8592 10.3446 10.0021
9.7710 9.3798 9.1349 8.9434 8.6525 8.3072
7.9482 7.5477 7.0653 6.7081 6.2358 5.7746
5.4652 4.9782 4.6680 4.4286 4.2058 4.1358
4.0530 3.9848 3.8016 3.7031 3.6608 3.5337
3.3809 2.9979 2.5431 2.0101 1.3702 0.8326
0.3032 -0.2031 -0.6717 -1.0170 -1.3153 -1.6209
-1.8308 -2.0987 -2.4191 -2.7947 -3.1842 -3.5487
-3.9695 -4.4620 -4.9462 -5.4029 -5.8779 -6.2996
-6.7360 -7.1134 -7.4927 -7.9411 -8.3121 -8.6813
-8.9823 -9.2806 -9.6157 -9.9987 -10.4986 -10.9746
-11.5104 -12.0711 -12.5406 -12.9622 -13.3876 -13.7945
-14.0615 -14.2705 -14.4316 -14.5522 -14.5945 -14.4859
-14.3211 -14.0200 -13.7503 -13.3645 -12.8048 -12.7431
-13.0064 -12.9567 -12.9696 -13.5560 -14.2079 -14.6111
-14.9177 -15.2362 -15.6974 -16.1854 -16.6126 -16.8639
-16.9099 -16.7580 -16.2471 -15.4387 -14.4886 -13.5017
-12.5203 -11.5270 -10.5824 -9.5743 -8.6214 -7.8306
-6.9974 -6.2858 -5.7076 -5.0171 -4.0735 -3.0774
-2.1991 -1.0446 0.2931 1.3454 1.9153 2.6195
3.8845 4.9101 5.3327 5.3575 6.0977 6.8977
6.7016 6.9069 7.0727 7.1150 7.5974 7.5394
7.4961 8.1185 8.4647 8.4177 8.3818 9.1284
10.2940 10.1623 10.2360 10.7764 11.0231 11.7302
12.3507 12.8533 12.5698 12.0809 12.7926 13.3634
13.0550 13.2363 13.7022 13.6018 13.5171 13.5539
13.4748 13.0669 12.7493 12.4483 11.7523 11.2422
10.6595 10.0095 9.5888 8.9130 8.2087 7.5606
6.8517 6.1667 5.4735 4.9368 4.5317 4.2905
4.1911 4.2049 4.2629 4.2472 4.1837 3.9940
3.6921 3.3376 2.9151 2.3903 1.9033 1.4420
0.9486 0.5325 0.1651 -0.1350 -0.3707 -0.5935
-0.8531 -1.1569 -1.5445 -1.9477 -2.3114 -2.7432
-3.0985 -3.4300 -3.8037 -4.0339 -4.1471 -4.1683
-4.0910 -3.9317 -3.8249 -3.6343 -3.3425 -3.1151
-2.7671 -2.4642 -2.1236 -1.7360 -1.4101 -1.0382
-0.7380 -0.2906 0.1522 0.6199 1.2993 1.9337
2.5882 3.2308 3.8329 4.3724 4.8539 5.3501
5.7184 6.0250 6.3398 6.5783 6.7707 6.9567
7.1122 7.3065 7.5311 7.7245 7.9270 8.1093
8.2962 8.4978 8.6276 8.7583 8.8743 8.9498
9.0658 9.2150 9.3733 9.4902 9.6201 9.7241
9.7738 9.8695 9.9303 9.9423 9.8907 9.7692
9.6283 9.4101 9.1340 8.7639 8.2612 7.6738
6.9833 6.1806 5.3566 4.5519 3.6737 2.7024
1.6750 0.5702 -0.5834 -1.6182 -2.5185 -3.4548
-4.3460 -5.0402 -5.7039 -6.2784 -6.6273 -7.0011
-7.3675 -7.6934 -8.0258 -8.2394 -8.3535 -8.3646
-8.2771 -8.0368 -7.7146 -7.3961 -6.9625 -6.4874
-6.0685 -5.6469 -5.2178 -4.8146 -4.4915 -4.2733
-4.1177 -4.0081 -3.9207 -3.8470 -3.7062 -3.5570
-3.4125 -3.2560 -3.1124 -2.8012 -2.5406 -2.4790
-2.6649 -2.7772 -2.8187 -3.1989 -3.6141 -4.0560
-4.2714 -4.4058 -4.8146 -5.1368 -5.3265 -5.5530
-5.8292 -5.9811 -6.0170 -6.0280 -5.9700 -5.8153
-5.5612 -5.2436 -4.9849 -4.7594 -4.5228 -4.2880
-4.0597 -3.8746 -3.6804 -3.4622 -3.2771 -3.1878
-3.1777 -3.2449 -3.3609 -3.4788 -3.6509 -3.8203
-3.9409 -4.0137 -4.0486 -4.0588 -4.0744 -4.1518
-4.2383 -4.4629 -4.8496 -5.2694 -5.8264 -6.4552
-7.1061 -7.8113 -8.5018 -9.1655 -9.8146 -10.4581
-11.1265 -11.8842 -12.6833 -13.5091 -14.3045 -15.0024
-15.6818 -16.3032 -16.8584 -17.3620 -17.9042 -18.5339
-19.2014 -19.9453 -20.6919 -21.4026 -22.0802 -22.7109
-23.2310 -23.6177 -23.9915 -24.3238 -24.6322 -24.8790
-25.0263 -25.0935 -24.9922 -24.7703 -24.4242 -24.0108
-23.5118 -22.8665 -22.1419 -21.2949 -20.4166 -19.5595
-18.7890 -18.1141 -17.5240 -17.0968 -16.7810 -16.5288
-16.2940 -16.0501 -15.7822 -15.5851 -15.4434 -15.3366
-15.2758 -15.2114 -15.2408 -15.2224 -15.1598 -15.1396
-15.0834 -15.0475 -14.8974 -14.6470 -14.3331 -13.9179
-13.4511 -12.8536 -12.3684 -11.8814 -11.3797 -10.7739
-9.9628 -9.2097 -8.2992 -7.4301 -6.4331 -5.7721
-5.0899 -4.0735 -3.5524 -2.4670 -1.6375 -1.1717
0.1274 1.0544 2.4464 4.2850 4.9653 5.8353
7.3010 8.4536 8.8660 9.8097 11.1584 11.9916
13.4085 14.0179 15.6714 16.9658 17.8717 20.4357
20.6235 22.7354 23.6791 23.3587 26.3719 27.2613
28.1865 28.8963 30.1484 31.7706 32.6166 34.7884
35.4006 36.8792 38.5529 38.4258 38.8328 38.8484
38.2261 36.6821 34.5168 32.2539 29.4570 26.6445
23.7224 20.7864 17.7548 14.5814 11.3646 7.9445
4.3457 0.1089 -4.3773 -8.6776 -12.4587 -15.7601
-18.4677 -19.6709 -19.5687 -18.3332 -16.1964 -13.4750
-10.5023 -7.8886 -5.6478 -3.8848 -2.6705 -2.0104
-1.7185 -1.6393 -2.0325 -2.6843 -3.5110 -4.3653
-4.9941 -5.6321 -6.1477 -6.5694 -6.9533 -7.2212
-7.5102 -7.9328 -8.5165 -9.1573 -10.0144 -10.9755
-11.8713 -12.7376 -13.5303 -14.2226 -14.7658 -15.2243
-15.6284 -16.0823 -16.4266 -16.5555 -16.6531 -16.6512
-16.5601 -16.3815 -16.0961 -15.8770 -15.8438 -15.8641
-15.8227 -15.8217 -15.7997 -15.7104 -15.6514 -15.5391
-15.4342 -15.4498 -15.5143 -15.6763 -15.9442 -16.2204
-16.4542 -16.5758 -16.5435 -16.3907 -16.1495 -15.7803
-15.3053 -14.8560 -14.4362 -13.9206 -13.2412 -12.5636
-11.7139 -11.0492 -10.2289 -8.8581 -8.0847 -6.8244
-5.4443 -4.5550 -3.2569 -2.2626 -0.6957 0.7138
1.6059 3.5365 4.9377 6.3987 8.2612 8.1581
8.6184 11.0719 12.4943 12.6084 13.7565 14.8327
14.8759 15.6253 16.8194 17.4095 17.7741 18.8632
18.9921 19.2665 20.3510 20.5038 21.5487 21.8949
21.5598 22.6774 22.9886 23.0512 23.7085 24.2361
24.4819 24.3290 25.1576 26.1399 26.4364 27.0707
27.6884 28.0981 28.8264 29.2020 29.3465 29.4091
29.3585 29.9109 30.0195 29.6798 29.3935 29.1044
28.7776 28.2482 27.7759 26.9888 26.2329 25.7523
24.7875 23.5870 22.4288 20.9899 19.3898 17.6968
16.1547 14.7756 13.5696 12.7760 12.2392 12.0818
12.3911 12.8524 13.1728 13.2786 13.1479 13.0522
12.9058 12.4823 11.9796 11.4898 11.4098 11.5552
11.6427 11.9060 12.1371 12.4961 13.1010 13.4655
13.7693 14.1256 14.3945 14.7425 15.2212 15.8785
16.4576 17.0836 17.7585 18.4416 19.0427 19.4285
20.0168 20.6677 21.2928 21.8277 22.5255 23.2132
23.7665 24.3419 24.6227 25.2303 25.6060 25.6409
26.0957 26.1804 26.1289 26.6269 26.9216 26.7577
26.8875 26.9004 26.6638 26.5505 26.3526 26.0276
25.4430 25.0315 24.4395 23.7767 23.3228 22.6176
22.0523 21.4880 21.0138 20.5977 20.0683 19.4902
18.7270 17.8192 16.9952 16.3692 15.7202 15.2414
14.9652 14.6835 14.4248 14.2619 14.1781 14.1477
14.1772 13.6293 13.6293 13.7600 13.8834 14.0611
14.2673 14.4597 14.6107 14.5978 14.4404 14.3004
14.1559 13.9966 13.8318 13.5869 13.3319 13.0567
12.6654 12.2005 11.7263 11.1602 10.5277 9.8547
9.0896 8.2988 7.4656 6.5966 5.7726 4.9284
4.0593 3.3246 2.6148 1.8442 1.1087 0.3979
-0.2714 -0.8753 -1.4111 -1.8908 -2.3502 -2.7930
-3.2018 -3.7689 -4.4474 -5.1692 -6.0705 -7.0031
-8.0185 -8.9373 -9.7355 -10.5853 -11.3567 -12.2332
-13.1225 -14.0386 -15.0154 -15.9194 -16.9266 -17.9181
-18.9041 -19.9131 -20.7776 -21.5813 -22.3455 -23.0810
-23.8608 -24.6691 -25.5244 -26.3742 -27.2497 -28.2237
-29.0495 -29.7916 -30.4323 -30.9737 -31.5343 -31.7774
-32.0038 -32.3436 -32.6253 -32.9263 -33.1141 -33.3415
-33.4870 -33.6150 -33.8829 -34.0513 -34.3248 -34.7575
-34.9876 -35.0622 -35.1552 -35.0815 -34.7556 -34.1406
-33.3028 -32.3270 -31.2139 -30.0723 -28.8930 -27.7183
-26.5435 -25.4388 -24.4555 -23.4898 -22.4983 -21.4303
-20.2556 -18.9823 -17.7036 -16.4745 -15.3154 -14.2475
-13.2017 -12.2184 -11.3401 -10.4950 -9.7474 -9.1223
-8.6335 -8.1363 -7.7349 -7.5305 -7.3041 -7.2939
-7.1494 -6.9063 -6.6449 -6.1008 -5.5696 -4.9224
-4.1812 -3.4622 -2.8187 -2.2949 -1.5538 -0.8706
-0.9544 -0.5042 0.3142 0.5260 1.1520 1.4945
1.3720 1.4641 1.5111 1.3371 1.4052 1.5810
1.6289 2.0828 2.4897 3.0366 3.7464 4.3862
5.2581 5.8767 6.6178 7.2779 7.9113 9.0492
9.8824 10.7257 11.3554 11.9318 12.7999 13.2750
13.8356 14.4782 15.0131 15.4044 15.9107 16.6104
17.0100 17.4031 17.7668 18.0945 18.4287 18.5079
18.6450 18.6533 18.3643 18.0383 17.6323 17.2300
16.7237 16.1124 15.4983 14.8576 14.2278 13.5033
12.7097 11.8176 10.8822 10.0104 9.0732 8.1756
7.4455 6.7532 6.1106 5.6457 5.2130 4.7066
4.2491 3.8044 3.3662 2.9123 2.4023 1.9677
1.4761 0.9219 0.5076 0.1117 -0.3302 -0.7021
-1.1440 -1.6356 -2.1429 -2.6281 -2.9135 -3.4585
-4.1775 -4.7575 -5.4130 -6.0501 -6.7046 -7.4062
-8.0718 -8.7079 -9.2944 -9.7694 -10.1368 -10.4369
-10.8346 -11.3262 -11.6586 -11.9817 -12.3086 -12.4605
-12.5562 -12.5958 -12.5691 -12.5672 -12.5590 -12.5451
-12.5498 -12.5396 -12.4660 -12.3343 -12.2064 -12.0775
-11.8860 -11.6328 -11.3861 -11.0602 -10.6054 -10.0668
-9.4417 -8.7853 -8.0883 -7.4043 -6.7433 -6.0841
-5.4912 -4.8900 -4.3091 -3.8120 -3.3885 -2.9668
-2.5056 -2.1291 -1.7553 -1.3143 -0.8356 -0.3725
-0.0042 0.3373 0.5933 0.7746 0.9219 0.9892
1.0877 1.2110 1.3243 1.3795 1.3095 1.2239
1.1024 0.9026 0.7074 0.4911 0.2922 0.1514
0.0860 0.0860 0.0759 0.0648 0.0161 -0.0953
-0.2132 -0.3301 -0.4249 -0.4756 -0.4774 -0.4093
-0.2325 0.0253 0.2600 0.5316 0.8750 1.2258
1.6382 2.0387 2.4419 2.8553 3.1269 3.3138
3.5329 3.7612 3.9499 4.1663 4.4480 4.7886
5.2103 5.6274 6.0877 6.5774 7.0037 7.4355
7.8498 8.3552 8.9407 9.6017 10.2701 10.8308
11.4393 12.0028 12.5975 13.0790 13.5227 14.0263
14.2049 14.3274 14.3486 14.1893 13.9195 13.3994
12.7347 11.9761 11.2083 10.4745 9.8779 9.3210
8.8036 8.4675 8.1619 7.8489 7.5810 7.3213
7.0019 6.7054 6.3952 6.0932 5.8529 5.5933
5.3125 5.1035 4.9203 4.5944 4.4646 4.3523
4.2326 4.0586 4.0107 4.1645 4.0540 4.3808
4.1037 4.1056 4.9756 4.8310 4.7933 4.9986
5.0023 4.9940 4.9618 4.9406 4.7961 4.7684
4.6322 4.3588 4.2741 4.2529 4.0669 3.8506
3.7042 3.7226 3.7373 3.6416 3.7392 3.6720
3.3636 3.3571 3.2227 2.8443 2.6676 2.4705
2.2238 2.0673 1.9706 1.8731 1.7902 1.6696
1.5895 1.5987 1.5490 1.6208 1.7442 1.8694
2.0333 2.2422 2.5589 2.7679 3.0101 3.3120
3.4943 3.6950 3.8681 4.0191 4.1222 4.1102
4.0881 4.0154 4.0973 4.1526 4.1157 4.2538
4.2750 4.1406 3.8718 3.4989 3.0441 2.3583
1.4984 0.4756 -0.7102 -2.0102 -3.3672 -4.6008
-5.8391 -7.2191 -8.5467 -9.8613 -11.0757 -12.2301
-13.4583 -14.5667 -15.6945 -16.9208 -18.0458 -19.1202
-20.0215 -20.7239 -21.4273 -22.0819 -22.6352 -23.1305
-23.6295 -24.0796 -24.4194 -24.5298 -24.5934 -24.8005
-24.9460 -25.1144 -25.2801 -25.3391 -25.5655 -25.9863
-26.3398 -26.7854 -27.4206 -28.0982 -28.6322 -28.8135
-29.0695 -29.6384 -30.1540 -30.3980 -30.5738 -30.6686
-30.6668 -30.5563 -30.3225 -29.8861 -29.0639 -28.4793
-27.4952 -26.6684 -26.5948 -26.1004 -25.6548 -25.2516
-24.8428 -24.4018 -23.7832 -23.0844 -22.2558 -21.5322
-20.6521 -19.7425 -19.0658 -18.4739 -17.8119 -17.1380
-16.5709 -16.0434 -15.5932 -15.1577 -14.8944 -14.8079
-14.5234 -14.2822 -14.0069 -13.6598 -13.4812 -12.9970
-12.7042 -12.7263 -12.5192 -12.3737 -12.0819 -11.8425
-11.5341 -10.9854 -10.5131 -9.9386 -9.4203 -9.2297
-8.9950 -8.2244 -7.7834 -7.3838 -6.6768 -5.7451
-5.2747 -5.6015 -5.0528 -4.8116 -4.2914 -3.4573
-3.2529 -3.0127 -2.2485 -1.0397 -1.4071 -0.3456
0.5962 0.4572 2.0306 1.7111 1.6347 2.1079
1.7203 2.9282 3.0645 2.9291 3.7863 3.2910
3.4088 3.9980 4.3083 4.7051 5.1203 5.5843
5.5023 6.1762 6.3456 6.4800 7.0969 7.0877
7.7717 8.4382 8.4290 8.8479 9.9048 10.3412
10.6828 11.2931 11.7986 12.4016 12.8297 13.7043
14.5688 15.1202 15.7380 16.2508 16.9348 17.5028
18.0386 18.8083 19.3156 19.8993 20.6772 21.2489
21.9504 22.7542 23.2900 24.0025 24.4279 24.6774
25.6118 26.0160 26.3861 26.9412 26.9946 27.5691
28.0303 28.1279 28.5275 28.5560 28.5127 28.5652
28.2854 28.2577 28.0828 27.9558 27.8315 27.6078
27.7799 27.2570 26.7516 26.5628 25.7932 24.9388
23.9970 22.8960 21.7516 20.4112 18.9363 17.6005
16.1983 14.6719 13.2965 11.9662 10.8835 10.0466
9.3488 8.8958 8.4889 8.1676 7.9586 7.6834
7.3492 6.9377 6.3917 5.8587 5.4471 5.0596
4.6259 4.2264 3.9603 3.7762 3.6427 3.6160
3.6501 3.7753 4.0008 4.1601 4.2964 4.4455
4.4879 4.4851 4.4501 4.3194 4.1887 4.0054
3.7771 3.5939 3.3914 3.2358 3.0415 2.7764
2.5426 2.2277 1.8806 1.5124 1.0300 0.5328
0.0504 -0.4928 -1.0249 -1.4990 -1.9630 -2.4528
-3.0531 -3.7030 -4.3686 -5.0867 -5.8334 -6.5947
-7.3340 -8.0843 -8.8816 -9.7360 -10.6244 -11.5597
-12.6047 -13.6938 -14.7451 -15.7523 -16.6591 -17.4675
-18.2942 -19.0869 -19.7626 -20.4595 -21.2319 -22.1065
-23.0014 -23.8060 -24.6042 -25.2698 -25.8323 -26.4234
-26.9887 -27.5245 -27.9406 -28.2039 -28.4267 -28.5160
-28.3374 -28.2757 -28.3291 -27.8246 -27.1442 -26.7530
-25.6454 -23.8382 -22.4794 -21.0377 -18.6191 -16.0727
-14.2360 -13.0714 -12.5061 -12.3137 -12.5871 -13.2316
-13.5437 -13.1883 -12.5521 -11.7484 -10.6160 -9.4560
-8.1736 -6.8718 -5.6455 -4.4377 -3.6137 -2.8127
-1.9722 -1.3903 -1.0405 -0.6851 -0.3500 -0.3270
-0.1908 0.1352 0.6084 0.9637 1.2280 1.8429
2.5693 3.0168 3.3169 3.9880 4.5303 4.7457
5.1397 5.5568 5.8330 6.5897 7.0455 7.2811
8.1806 8.5111 9.0027 9.6205 9.9399 10.6074
10.9941 11.3200 11.7766 12.3511 12.9873 13.3086
13.8112 14.6011 15.0053 15.5531 16.3071 16.9653
17.5343 17.8749 18.4632 19.0193 19.3305 19.7659
20.2603 20.4951 20.6571 20.7593 20.6092 20.3588
19.8534 19.3415 18.9060 18.4282 18.0747 17.7921
17.6162 17.5260 17.3621 17.1955 17.1117 16.9874
16.8540 16.7462 16.7518 16.6717 16.5225 16.5391
16.3264 16.2878 16.3734 16.1837 16.0429 15.9094
15.7529 15.5172 15.3193 15.0845 14.7871 14.5432
14.2384 13.8932 13.4992 13.1162 12.6826 12.1983
11.7003 11.1700 10.6323 10.0496 9.5073 8.9899
8.4697 8.0343 7.6136 7.2766 7.0041 6.6533
6.4029 6.2004 6.0024 5.8837 5.7530 5.6480
5.5486 5.4289 5.2733 5.0855 4.8636 4.6252
4.4236 4.1943 4.0139 3.9098 3.8012 3.7395
3.7165 3.6907 3.6585 3.6088 3.5545 3.5038
3.4173 3.2912 3.1319 2.9349 2.7324 2.5169
2.2803 2.0207 1.7602 1.5816 1.4398 1.2455
1.0522 0.8948 0.7622 0.5514 0.3267 0.1205
-0.1529 -0.3472 -0.5331 -0.7854 -1.0247 -1.3442
-1.7033 -2.0660 -2.5134 -3.0078 -3.5510 -4.1595
-4.7386 -5.2882 -5.8682 -6.4445 -7.0420 -7.6478
-8.1854 -8.7516 -9.3187 -9.7837 -10.2237 -10.5865
-10.7835 -10.8838 -10.8930 -10.8544 -10.8811 -10.9639
-11.1370 -11.3810 -11.6166 -11.8247 -11.9462 -12.0061
-12.1276 -12.2657 -12.3918 -12.6054 -12.9157 -13.3014
-13.6964 -14.0582 -14.3583 -14.6161 -14.8287 -15.0009
-15.2366 -15.5431 -15.9584 -16.4472 -16.9683 -17.5170
-18.0546 -18.6033 -19.1198 -19.6335 -20.1960 -20.8055
-21.4923 -22.2675 -23.0914 -23.9449 -24.7661 -25.5007
-26.1783 -26.7362 -27.2186 -27.6394 -28.0196 -28.3879
-28.6576 -28.9375 -29.1943 -29.3794 -29.5248 -29.5828
-29.6003 -29.6197 -29.6325 -29.6454 -29.7007 -29.7854
-29.8958 -29.9842 -29.9925 -29.9271 -29.7752 -29.5423
-29.2330 -28.8684 -28.4136 -27.9432 -27.3991 -26.7620
-26.1479 -25.3847 -24.5423 -23.5738 -22.4230 -21.2004
-19.8314 -18.3879 -16.9360 -15.5164 -14.1143 -12.7609
-11.5080 -10.3406 -9.2699 -8.2544 -7.3255 -6.5356
-5.7724 -5.0497 -4.3951 -3.7230 -3.0768 -2.4148
-1.7823 -1.2208 -0.6960 -0.2615 0.1620 0.5413
0.8396 1.0799 1.2097 1.2981 1.3092 1.2714
1.2843 1.2963 1.3009 1.3000 1.3202 1.3009
1.2061 1.0799 0.8590 0.5110 0.1151 -0.2596
-0.6527 -1.0486 -1.3911 -1.7050 -1.9867 -2.2251
-2.4470 -2.6781 -2.8788 -2.9957 -3.0666 -3.1734
-3.2848 -3.3032 -3.2830 -3.2213 -3.1485 -3.1412
-3.0924 -3.0196 -2.9534 -2.8466 -2.6901 -2.3798
-2.0760 -1.8099 -1.5070 -1.0955 -0.6407 -0.2255
0.2431 0.5101 1.1877 1.7051 1.9426 2.8421
3.4294 3.9468 4.6907 5.4023 6.2641 6.9840
7.6478 8.5647 9.4237 10.0120 10.8074 11.6673
12.3495 12.9829 13.8013 14.6548 15.4474 16.4242
17.2850 18.2977 18.9744 19.7606 21.0081 21.5522
22.3835 23.1182 23.8307 24.9309 25.6085 26.3459
26.8955 27.3724 27.9570 28.5297 28.7994 29.0710
29.7781 30.2411 30.3931 30.5284 30.9307 31.2594
31.2428 31.2299 30.9574 30.8423 30.8893 30.3028
29.8011 29.4724 28.9274 28.3115 27.7278 27.4111
27.0401 26.5954 26.3257 26.0274 25.5993 25.2154
24.8490 24.4826 24.1281 23.6899 23.2011 22.6063
21.8459 20.9713 20.0552 19.1346 18.3327 17.6073
16.8781 16.2236 15.6242 15.1160 14.6511 14.2166
13.8051 13.3843 13.0069 12.5742 12.1240 11.7603
11.4335 11.1536 10.9318 10.7513 10.6298 10.6003
10.6132 10.6095 10.6187 10.6445 10.6850 10.7504
10.8774 11.0404 11.3322 11.6931 11.8984 12.2676
12.6635 12.8053 13.0179 13.1671 13.2113 13.3466
13.4166 13.4718 13.5344 13.5427 13.5639 13.4562
13.3153 13.1210 12.9480 12.8798 12.6543 12.4840
12.2639 12.0411 11.7631 11.4013 11.1573 10.5921
10.0774 9.6346 8.9975 8.3190 7.6285 7.0485
6.4243 5.8563 5.2450 4.5904 4.0040 3.3577
2.6672 1.8488 1.2660 0.9005 0.3012 -0.3147
-0.8763 -1.4351 -2.0308 -2.7378 -3.3141 -3.8067
-4.3434 -4.9087 -5.4997 -5.9821 -6.5299 -7.1753
-7.6227 -7.9753 -8.3868 -8.8674 -9.3286 -9.6499
-9.9188 -10.0771 -10.2106 -10.4389 -10.5991 -10.7786
-10.9950 -11.2040 -11.4645 -11.7959 -12.1421 -12.4892
-12.9329 -13.3067 -13.7127 -14.1666 -14.5026 -14.8718
-15.3266 -15.8191 -16.2334 -16.6578 -17.0132 -17.2654
-17.5600 -17.8160 -18.0461 -18.2514 -18.4715 -18.6740
-18.9704 -19.2963 -19.5541 -19.8561 -20.0660 -20.3532
-20.5484 -20.6469 -20.8191 -20.9001 -21.0465 -21.2159
-21.3807 -21.5409 -21.6670 -21.7056 -21.6679 -21.5887
-21.3586 -21.0676 -20.6294 -20.0430 -19.4068 -18.6694
-17.8758 -17.0095 -16.0999 -15.2280 -14.3120 -13.4015
-12.5628 -11.7269 -10.9719 -10.2308 -9.4851 -8.7652
-8.0213 -7.3787 -6.7223 -6.0272 -5.2934 -4.4179
-3.5194 -2.5555 -1.6137 -0.7446 0.0950 0.8905
1.6997 2.4850 3.3072 4.0860 4.7885 5.5655
6.3563 7.1333 7.9186 8.6662 9.4091 10.1079
10.7836 11.5284 12.3184 13.1000 13.8190 14.4957
15.0978 15.6198 16.0221 16.2614 16.4686 16.5754
16.5266 16.5100 16.4244 16.2670 16.1860 15.9779
15.7054 15.4651 15.1880 14.7544 14.2195 13.6330
12.8947 12.0753 11.2145 10.3979 9.4939 8.5714
7.5090 6.5405 5.6373 4.5454 3.6359 2.3792
1.4576 0.7902 -0.4094 -1.4359 -2.2866 -2.9835
-3.7799 -4.4740 -5.0430 -5.7261 -6.2177 -6.7701
-7.1199 -7.4679 -7.8491 -7.8758 -8.0884 -8.3407
-8.3913 -8.3499 -8.3600 -8.4272 -8.4208 -8.3177
-8.1115 -8.0442 -7.8776 -7.6106 -7.4688 -7.2681
-7.0628 -6.9579 -6.8511 -6.7572 -6.7609 -6.7158
-6.6771 -6.6716 -6.5979 -6.5012 -6.3852 -6.2508
-6.0547 -5.8154 -5.5272 -5.2170 -4.9619 -4.7391
-4.5430 -4.3295 -4.1232 -3.8701 -3.5902 -3.3609
-3.0884 -2.8408 -2.6079 -2.3326 -2.0518 -1.7857
-1.4359 -1.0133 -0.6828 -0.3900 -0.1295 0.0666
0.1946 0.2480 0.3244 0.4404 0.5591 0.7166
0.9578 1.2119 1.4816 1.7652 1.9696 2.1408
2.2807 2.3415 2.3875 2.4382 2.4363 2.4059
2.3544 2.2365 2.1123 1.9990 1.8195 1.6317
1.4678 1.2874 1.1843 1.0784 0.8924 0.7534
0.6126 0.4330 0.2995 0.2130 0.1127 0.0482
0.0878 0.1053 0.1504 0.3069 0.4763 0.6798
0.9504 1.2966 1.6879 2.1160 2.5929 3.0937
3.6497 4.2344 4.7628 5.2471 5.6788 6.0001
6.2229 6.3767 6.4964 6.5765 6.6464 6.7007
6.7339 6.7541 6.6961 6.5967 6.4420 6.1981
5.9228 5.6162 5.3060 5.0003 4.7315 4.4737
4.2233 4.0668 3.8302 3.5687 3.3911 3.1204
2.8461 2.6131 2.4032 2.2513 2.1049 1.9503
1.7947 1.6649 1.5157 1.3786 1.3298 1.2497
1.1926 1.1751 1.0941 1.1254 1.1005 1.0039
0.9753 0.8980 0.8630 0.7433 0.6964 0.6734
0.4773 0.3815 0.4570 0.5390 0.3070 0.2812
0.4091 0.3198 0.3364 0.1882 0.2453 0.3797
0.3806 0.5187 0.6835 1.0011 1.1153 1.3215
1.5728 1.5231 1.7073 1.9254 2.0516 2.1860
2.3250 2.5561 2.7826 3.0947 3.4666 3.8045
4.1663 4.5530 4.9405 5.2444 5.4754 5.6955
5.8824 6.0232 6.1024 6.2046 6.2911 6.3141
6.3685 6.3859 6.3639 6.3215 6.2561 6.1263
5.8676 5.6117 5.3742 5.0501 4.6423 4.1967
3.6949 3.1416 2.5754 2.0111 1.4440 0.7949
0.1275 -0.4719 -1.0353 -1.4974 -1.9173 -2.3610
-2.7081 -3.0036 -3.2844 -3.5072 -3.7226 -3.9003
-4.0669 -4.2465 -4.3606 -4.4048 -4.3542 -4.2916
-4.2575 -4.1931 -4.1581 -4.1433 -4.1415 -4.1664
-4.2188 -4.3109 -4.4398 -4.6304 -4.8320 -5.0640
-5.3908 -5.7747 -6.2415 -6.7883 -7.3554 -7.9474
-8.5338 -9.1286 -9.6892 -10.1799 -10.7250 -11.3077
-11.9126 -12.5322 -13.1831 -13.8072 -14.3504 -14.9120
-15.3843 -15.7839 -16.1466 -16.4357 -16.7247 -17.0267
-17.3195 -17.5211 -17.5938 -17.5469 -17.4299 -17.2292
-16.8960 -16.5130 -16.0867 -15.6052 -15.1311 -14.6432
-14.1460 -13.6618 -13.1794 -12.7227 -12.2762 -11.8739
-11.5102 -11.1273 -10.7360 -10.3245 -9.8697 -9.3486
-8.8174 -8.2926 -7.8185 -7.4778 -7.1418 -6.8638
-6.7671 -6.7183 -6.6916 -6.7294 -6.7892 -6.8426
-6.8748 -6.8536 -6.7818 -6.6364 -6.3841 -6.1328
-5.8778 -5.6356 -5.4580 -5.3226 -5.2655 -5.2342
-5.3272 -5.5647 -5.8419 -6.1981 -6.5811 -6.9807
-7.3940 -7.7733 -8.1260 -8.4132 -8.6378 -8.7934
-8.8514 -8.9039 -8.9582 -8.9472 -8.9159 -8.8772
-8.8173 -8.6931 -8.5246 -8.3045 -7.9630 -7.5524
-7.1215 -6.6538 -6.1051 -5.5454 -5.0004 -4.4913
-3.9886 -3.5476 -3.0155 -2.4686 -1.9457 -1.2598
-0.7213 -0.0326 0.4139 1.0685 1.7332 1.8630
2.9282 3.7724 4.2520 4.9011 5.5207 6.5371
7.1741 7.8158 8.5680 9.2612 9.9250 10.3476
11.0979 11.7865 12.0563 12.2763 12.5212 12.7155
12.7274 12.6676 12.6087 12.5553 12.4485 12.3049
12.1907 12.0139 11.8142 11.5545 11.2148 10.8392
10.4037 9.9048 9.3211 8.6453 7.9318 7.1944
6.4441 5.7831 5.0779 4.4076 3.8829 3.3241
2.7809 2.2368 1.7323 1.2876 0.8255 0.3891
-0.0040 -0.3161 -0.5224 -0.6227 -0.6282 -0.5187
-0.3281 -0.0722 0.2593 0.6524 1.1615 1.6955
2.2432 2.8030 3.3176 3.8359 4.2447 4.5752
4.8993 5.1847 5.4554 5.7463 6.0114 6.2158
6.3861 6.4644 6.4469 6.2904 6.0952 5.8614
5.5373 5.2611 4.9785 4.6783 4.3920 4.0505
3.5690 3.1593 2.7984 2.3344 2.0094 1.6835
1.3346 1.0455 0.7629 0.5548 0.2731 -0.0454
-0.3842 -0.6908 -0.8851 -1.0857 -1.2699 -1.3951
-1.4301 -1.4706 -1.4697 -1.3978 -1.3472 -1.2367
-1.0848 -0.9734 -1.0121 -1.1382 -1.2699 -1.5092
-1.7329 -1.8977 -2.1104 -2.2181 -2.2448 -2.2365
-2.1159 -2.0229 -1.8876 -1.7247 -1.5948 -1.4466
-1.3960 -1.2966 -1.1585 -1.0765 -0.9706 -0.8270
-0.6006 -0.3999 -0.1853 0.0918 0.3698 0.6570
0.8854 1.1431 1.3669 1.5878 1.9340 2.2212
2.5729 2.9144 3.1511 3.4530 3.7145 3.9318
4.0984 4.2678 4.4123 4.4179 4.4713 4.5578
4.5780 4.5882 4.6250 4.6517 4.6388 4.6351
4.5486 4.4363 4.3829 4.2770 4.1721 4.1141
4.0901 4.0579 3.9649 3.8646 3.7688 3.6427
3.4908 3.3057 3.0424 2.7294 2.4155 2.1126
1.8189 1.5280 1.2214 0.9103 0.5632 0.1866
-0.1209 -0.4063 -0.6806 -0.9375 -1.1593 -1.3306
-1.5073 -1.6289 -1.7449 -1.8848 -2.0118 -2.1186
-2.2061 -2.2963 -2.3534 -2.3856 -2.3875 -2.3690
-2.3515 -2.3488 -2.3893 -2.4344 -2.4878 -2.5605
-2.6590 -2.7898 -2.9334 -3.0715 -3.2372 -3.4397
-3.6644 -3.9645 -4.2545 -4.5436 -4.8299 -5.0757
-5.3675 -5.6382 -5.8859 -6.1151 -6.3526 -6.5717
-6.7071 -6.8415 -6.9243 -6.9740 -6.9704 -6.8746
-6.7816 -6.6325 -6.4345 -6.1943 -5.8858 -5.5645
-5.2276 -4.8713 -4.5123 -4.2121 -3.9700 -3.7122
-3.4765 -3.2841 -3.0871 -2.8965 -2.7584 -2.6341
-2.5099 -2.4344 -2.3515 -2.2622 -2.1655 -2.0495
-1.9335 -1.7973 -1.7043 -1.6251 -1.5459 -1.4962
-1.4355 -1.4244 -1.4263 -1.3968 -1.3416 -1.2532
-1.1676 -1.0506 -0.9153 -0.7910 -0.6787 -0.5728
-0.4881 -0.4264 -0.3473 -0.3022 -0.2451 -0.1300
-0.0076 0.1351 0.2972 0.4850 0.6664 0.7888
0.8919 1.0015 1.1009 1.1792 1.2289 1.2611
1.2675 1.2648 1.2906 1.3246 1.3937 1.4719
1.5539 1.7002 1.7951 1.9304 2.0869 2.1735
2.3778 2.5730 2.7654 3.1364 3.5084 3.8978
4.4069 4.8663 5.3994 5.8634 6.2344 6.7509
7.0740 7.3612 7.7820 8.2202 8.5958 8.8508
9.2633 9.7218 10.0062 10.2327 10.4997 10.7253
10.9260 11.1607 11.3946 11.6790 11.9598 12.2498
12.5601 12.7912 12.9983 13.1659 13.2404 13.2377
13.1300 12.9716 12.7028 12.3180 11.9460 11.4912
10.9987 10.5715 10.2024 9.9096 9.6224 9.3591
9.1703 8.9807 8.7698 8.5544 8.3712 8.2239
8.0085 7.7792 7.5638 7.3180 7.0252 6.6874
6.3863 6.0807 5.7253 5.3561 5.0035 4.6519
4.2762 3.9310 3.5572 3.1853 2.8695 2.5243
2.1671 1.8016 1.4462 1.0623 0.6609 0.2982
-0.0646 -0.4291 -0.8480 -1.2632 -1.6508 -2.0430
-2.4131 -2.7224 -2.9692 -3.2371 -3.4433 -3.5860
-3.7324 -3.8447 -3.9349 -3.9975 -4.0380 -4.0969
-4.1706 -4.2203 -4.2728 -4.3381 -4.3805 -4.3851
-4.3786 -4.3952 -4.4256 -4.4790 -4.5508 -4.6604
-4.8316 -4.9991 -5.1833 -5.4190 -5.6344 -5.8535
-6.0846 -6.3000 -6.5624 -6.8505 -7.1543 -7.4867
-7.8550 -8.2425 -8.5887 -8.9625 -9.3639 -9.7459
-10.1667 -10.5773 -10.9695 -11.3810 -11.7805 -12.1387
-12.4406 -12.6966 -12.8531 -12.9304 -12.9654 -12.9304
-12.8770 -12.7675 -12.6321 -12.4793 -12.2326 -11.9831
-11.7345 -11.4868 -11.2558 -10.9860 -10.6896 -10.2679
-9.6962 -9.1309 -8.6025 -8.1587 -7.8384 -7.5290
-7.2657 -7.0604 -6.8505 -6.6296 -6.3828 -6.1223
-5.8525 -5.5717 -5.2781 -5.0083 -4.7183 -4.4246
-4.1346 -3.8207 -3.5924 -3.3917 -3.2002 -3.0556
-2.9341 -2.8264 -2.7316 -2.6018 -2.4084 -2.1755
-1.8303 -1.3985 -0.9704 -0.5414 -0.0442 0.4179
0.8525 1.2419 1.6995 2.1938 2.5133 3.0859
3.4956 3.7829 4.2634 4.5396 4.9935 5.4630
5.7659 6.0688 6.3993 6.6727 7.1809 7.6495
7.6965 8.1715 8.5186 8.6595 9.0397 9.2469
9.5451 9.7937 9.9042 9.9373 9.9705 10.0009
9.8057 9.6796 9.5000 9.2238 9.0278 8.8409
8.6724 8.4441 8.2314 7.9681 7.7278 7.5363
7.3338 7.2463 7.1625 7.0806 7.0373 6.9950
6.9674 6.9407 6.9140 6.8652 6.7860 6.7593
6.7160 6.6590 6.6350 6.5549 6.4951 6.4353
6.3229 6.2005 6.0707 5.9510 5.8276 5.7153
5.6297 5.5570 5.5146 5.4327 5.3876 5.3857
5.3250 5.3176 5.3342 5.3600 5.3996 5.4585
5.5597 5.6297 5.6850 5.7273 5.7798 5.7770
5.7430 5.7761 5.7669 5.8332 5.9188 5.9400
6.0385 6.1066 6.1471 6.1738 6.2180 6.3276
6.4408 6.6351 6.8846 7.1561 7.4581 7.7490
8.0630 8.3622 8.6356 8.8915 9.1116 9.3353
9.5249 9.6805 9.8085 9.9273 10.0055 10.0405
10.0644 9.9954 9.9181 9.8444 9.6990 9.5581
9.3970 9.2073 8.9993 8.7489 8.4469 8.1265
7.8144 7.4572 7.0982 6.7446 6.3764 6.0413
5.6942 5.3453 5.0369 4.7174 4.4127 4.1558
3.9220 3.7296 3.5823 3.4810 3.3889 3.2904
3.2085 3.1054 2.9608 2.7786 2.5696 2.3330
2.0494 1.7511 1.4400 1.0837 0.7025 0.2855
-0.1178 -0.5201 -0.9684 -1.3882 -1.8127 -2.2039
-2.5142 -2.8217 -3.0730 -3.2516 -3.4090 -3.5085
-3.5609 -3.5876 -3.5922 -3.5655 -3.5029 -3.4357
-3.3308 -3.2019 -3.0583 -2.9469 -2.8032 -2.5915
-2.4157 -2.1883 -2.0106 -1.8605 -1.6543 -1.4499
-1.2722 -1.1387 -0.9739 -0.8193 -0.6388 -0.4372
-0.3055 -0.1260 0.0434 0.2229 0.4798 0.6215
0.8904 1.1159 1.3129 1.4105 1.4814 1.7208
1.6324 1.8055 1.8000 1.7908 1.8865 1.6729
1.7456 1.6066 1.6287 1.5661 1.4916 1.5367
1.4584 1.6250 1.5155 1.5450 1.4603 1.3912
1.3673 1.0810 1.1031 0.8103 0.6556 0.5792
0.3205 0.2487 -0.0063 -0.1628 -0.3608 -0.4740
-0.6489 -0.8818 -0.9242 -1.1764 -1.3228 -1.5364
-1.7141 -1.8052 -2.0980 -2.3346 -2.5638 -2.7443
-2.9781 -3.2451 -3.5535 -3.8435 -4.1068 -4.5450
-4.8875 -5.1766 -5.5715 -6.0254 -6.4756 -6.8890
-7.1688 -7.5850 -8.0112 -8.2460 -8.7661 -9.0387
-9.4354 -9.9289 -10.1720 -10.9011 -11.3007 -11.6790
-12.3474 -12.7221 -13.2137 -13.8545 -14.3940 -14.8294
-15.3901 -15.9931 -16.4682 -16.8705 -17.3732 -17.8547
-18.2791 -18.7237 -19.1620 -19.7383 -20.2658 -20.6506
-21.0216 -21.4258 -21.7480 -21.9828 -22.2746 -22.5683
-22.8104 -22.9854 -23.0664 -23.1520 -23.1152 -22.9034
-22.6585 -22.2341 -21.6090 -20.7721 -19.8653 -19.0726
-18.3490 -17.7073 -17.1577 -16.7121 -16.3568 -16.1238
-15.9756 -15.8605 -15.7814 -15.6110 -15.3560 -15.0688
-14.6757 -14.2301 -13.8103 -13.3730 -12.9173 -12.5159
-12.1034 -11.7038 -11.3697 -11.0355 -10.7114 -10.3837
-10.0890 -9.7852 -9.4685 -9.1297 -8.7145 -8.3205
-7.8777 -7.3759 -6.8401 -6.2951 -5.8136 -5.2308
-4.5827 -3.9567 -3.2294 -2.5380 -1.8668 -1.0742
-0.2953 0.4642 1.1934 1.9041 2.6774 3.4185
4.1366 4.9229 5.6290 6.2385 7.0606 7.7768
8.3173 9.1099 9.6006 9.9026 10.4835 10.8232
10.9650 11.3149 11.4686 11.3876 11.4723 11.5063
11.5367 11.4345 11.2440 11.2007 11.0506 10.8997
10.7118 10.5443 10.5314 10.3160 10.0269 9.9035
9.6448 9.3465 9.1081 8.8245 8.5520 8.1921
7.7805 7.4537 7.1223 6.7255 6.3867 6.1013
5.7607 5.4467 5.1936 4.9376 4.6835 4.4626
4.2729 4.0722 3.9194 3.8301 3.7629 3.7712
3.8154 3.8863 4.0050 4.1809 4.3889 4.5519
4.7719 5.0085 5.1494 5.3354 5.5425 5.7009
5.8528 5.9936 6.1170 6.1962 6.2937 6.3830
6.4226 6.4871 6.5046 6.4917 6.4862 6.4374
6.3840 6.2901 6.1952 6.1888 6.1584 6.1059
6.1059 6.1207 6.1372 6.1179 6.1106 6.1492
6.1768 6.2045 6.2284 6.2266 6.2109 6.1529
5.9853 5.7626 5.5315 5.2249 4.9018 4.5749
4.2168 3.8716 3.5291 3.1829 2.8285 2.4787
2.1334 1.7817 1.4282 1.0747 0.7322 0.4017
0.0896 -0.2151 -0.4655 -0.6570 -0.8200 -0.9415
-1.0501 -1.1339 -1.1956 -1.2444 -1.2987 -1.3282
-1.3199 -1.3236 -1.2619 -1.1680 -1.0529 -0.8844
-0.7362 -0.5806 -0.4232 -0.2722 -0.1350 0.0003
0.1476 0.2968 0.4339 0.5343 0.6632 0.8059
0.9182 1.0333 1.1428 1.2478 1.3794 1.5065
1.6400 1.8011 1.9631 2.1555 2.3434 2.5293
2.7208 2.8479 2.9823 3.1084 3.1867 3.2548
3.2741 3.2953 3.2879 3.2502 3.2180 3.1821
3.1333 3.0569 2.9749 2.8497 2.7273 2.5837
2.4170 2.2872 2.1289 1.9659 1.8260 1.6870
1.5525 1.4246 1.2598 1.1346 1.0425 0.9293
0.8271 0.7148 0.6273 0.5067 0.3447 0.2397
0.1182 -0.0540 -0.2049 -0.3808 -0.5465 -0.7214
-0.9332 -1.0943 -1.2609 -1.4331 -1.6338 -1.8409
-2.0167 -2.2552 -2.5249 -2.7772 -3.0617 -3.3323
-3.6242 -3.9492 -4.2355 -4.5420 -4.8164 -5.0677
-5.3016 -5.4461 -5.5299 -5.5649 -5.5824 -5.5676
-5.5133 -5.4608 -5.3780 -5.3181 -5.2767 -5.1515
-5.0604 -4.9664 -4.8136 -4.6737 -4.4647 -4.2612
-4.0946 -3.8746 -3.6637 -3.4603 -3.2559 -3.0791
-2.8794 -2.7192 -2.6096 -2.5102 -2.4549 -2.4172
-2.4319 -2.5120 -2.6059 -2.7302 -2.8812 -3.0681
-3.3148 -3.5707 -3.8617 -4.1894 -4.4647 -4.7565
-5.1110 -5.4617 -5.7950 -6.1301 -6.5214 -6.8473
-7.1962 -7.5810 -7.8204 -8.1794 -8.5937 -8.9353
-9.2713 -9.5438 -9.8347 -10.0805 -10.3245 -10.5740
-10.7443 -10.9202 -11.0914 -11.2212 -11.3031 -11.3547
-11.3860 -11.3971 -11.3335 -11.1927 -11.0334 -10.8097
-10.5197 -10.2140 -9.9452 -9.6616 -9.3726 -9.1240
-8.8266 -8.5072 -8.1914 -7.8609 -7.5193 -7.1511
-6.8012 -6.4606 -6.0721 -5.7158 -5.3752 -5.0290
-4.7648 -4.5282 -4.2870 -4.0586 -3.8073 -3.4915
-3.2586 -2.9483 -2.4862 -2.1354 -1.7653 -1.3916
-0.9496 -0.5298 -0.2048 0.2831 0.7425 1.1733
1.5968 2.0213 2.4282 2.7458 3.1435 3.4676
3.7410 4.0328 4.3109 4.6064 4.8283 5.0115
5.1450 5.2711 5.3761 5.3963 5.4230 5.4377
5.3899 5.3079 5.2186 5.1330 5.0373 4.9480
4.9121 4.8789 4.8467 4.8504 4.8624 4.8752
4.8826 4.9084 4.9471 4.9563 4.9461 4.9286
4.8771 4.8311 4.7813 4.7187 4.6810 4.6442
4.6000 4.5457 4.4619 4.3450 4.2511 4.1388
4.0154 3.9417 3.8920 3.8257 3.7567 3.7337
3.6554 3.6352 3.6398 3.5809 3.5680 3.5744
3.6122 3.6591 3.7088 3.7429 3.7972 3.8506
3.8690 3.9151 3.9215 3.9399 4.0283 4.0706
4.0854 4.1636 4.1747 4.1489 4.2189 4.2539
4.2364 4.1977 4.1038 4.0476 4.0357 4.0090
3.9961 3.9740 3.9123 3.8681 3.7926 3.7162
3.6260 3.4428 3.3074 3.1767 2.9926 2.8112
2.6013 2.3647 2.1548 1.9569 1.7645 1.5978
1.4386 1.3069 1.1467 0.9276 0.6892 0.4314
0.1543 -0.1495 -0.4257 -0.7268 -1.0775 -1.4163
-1.7883 -2.1584 -2.5128 -2.8617 -3.1876 -3.5126
-3.8146 -4.1110 -4.3946 -4.6726 -4.9470 -5.1836
-5.4119 -5.6135 -5.7875 -5.9339 -6.0913 -6.2782
-6.3979 -6.5341 -6.6823 -6.7818 -6.8720 -6.9226
-7.0101 -7.0635 -7.0616 -7.1086 -7.1509 -7.1740
-7.1832 -7.1979 -7.1813 -7.1500 -7.1638 -7.1620
-7.1427 -7.0828 -6.9935 -6.9318 -6.8434 -6.7302
-6.5995 -6.4503 -6.2874 -6.1171 -5.9228 -5.6917
-5.4689 -5.2259 -4.9607 -4.6597 -4.3586 -4.0419
-3.6829 -3.3275 -2.9409 -2.5349 -2.0745 -1.5921
-1.1005 -0.5656 -0.0105 0.6073 1.1753 1.7470
2.3777 2.9825 3.6288 4.2549 4.8542 5.4277
5.9682 6.5307 7.0812 7.5673 8.0009 8.4134
8.7853 9.1793 9.5734 9.9048 10.2583 10.6634
11.0068 11.3382 11.6338 11.8501 12.1217 12.3758
12.5664 12.8030 12.9963 13.1234 13.2219 13.1307
13.1943 12.9733 12.6069 12.8085 12.6861 12.3850
12.3077 12.2184 11.9183 11.4727 11.1707 10.7030
10.1589 9.5771 8.8332 8.1446 7.5103 6.7627
6.1100 5.5806 4.9767 4.4740 3.9888 3.5349
3.1658 2.8196 2.5554 2.3280 2.1577 1.9966
1.8622 1.7839 1.6863 1.5841 1.5105 1.4626
1.4460 1.4783 1.4755 1.4626 1.4801 1.4295
1.4018 1.3945 1.3457 1.2463 1.1247 1.0235
0.7988 0.5595 0.3404 -0.0040 -0.2811 -0.5582
-0.9228 -1.3601 -1.8489 -2.1371 -2.5909 -3.0927
-3.3864 -3.8264 -4.0907 -4.4304 -4.9625 -5.2295
-5.6815 -6.2937 -6.6740 -7.0864 -7.6333 -8.1737
-8.5677 -9.0151 -9.6448 -9.9109 -9.9882 -10.5038
-10.8113 -10.8665 -11.2550 -11.5404 -11.6583 -11.8424
-12.1545 -12.2171 -12.1085 -12.2567 -12.1720 -11.9667
-11.9197 -11.7301 -11.2725 -10.7026 -9.9680 -8.7638
-7.2954 -5.9015 -4.6430 -3.6110 -2.8689 -2.4501
-2.2788 -2.1205 -2.0201 -1.9501 -1.8249 -1.6841
-1.3830 -1.0102 -0.5747 -0.1098 0.3128 0.7510
1.1441 1.4921 1.7729 2.0491 2.2507 2.4349
2.6724 2.7773 2.9007 3.0701 3.2911 3.6197
3.9880 4.4952 5.0062 5.6019 6.2730 6.8990
7.4468 7.9504 8.5718 9.0966 9.7558 10.2888
10.8780 11.4111 11.4838 12.1559 12.9145 13.3104
13.5902 13.9603 14.6729 15.1967 15.6009 15.9940
16.3052 16.8180 17.1660 17.1899 17.5278 17.7257
17.7368 17.8086 17.7644 17.7543 17.5646 17.4385
17.2231 16.8742 16.5924 16.2334 15.9489 15.6083
15.2566 14.8948 14.5136 14.1169 13.6372 13.2588
12.7875 12.2111 11.6532 10.9941 10.3073 9.6490
9.0230 8.5139 8.1023 7.7801 7.5426 7.3235
7.1661 6.9479 6.6708 6.4369 6.2049 5.9619
5.7115 5.4454 5.1020 4.7540 4.3968 4.0249
3.6391 3.2230 2.8639 2.4911 2.1016 1.7187
1.2998 0.9085 0.5117 0.1186 -0.2552 -0.6566
-0.9530 -1.2145 -1.4649 -1.6334 -1.8074 -1.9473
-2.0845 -2.2088 -2.3128 -2.4343 -2.6019 -2.7934
-2.9876 -3.2049 -3.4507 -3.7296 -3.9580 -4.2572
-4.5895 -4.8887 -5.2027 -5.5138 -5.8397 -6.1675
-6.4980 -6.8009 -7.1277 -7.4416 -7.7409 -8.0299
-8.2757 -8.5096 -8.6891 -8.8401 -8.9229 -8.9285
-8.8972 -8.8235 -8.7186 -8.5814 -8.4221 -8.2527
-8.0787 -7.8863 -7.6884 -7.4950 -7.2796 -7.0412
-6.8174 -6.5891 -6.3571 -6.1546 -5.9484 -5.7375
-5.5322 -5.3223 -5.1023 -4.9053 -4.7165 -4.5343
-4.3851 -4.2350 -4.1329 -4.0804 -4.0399 -4.0067
-3.9800 -3.9220 -3.8088 -3.7167 -3.5749 -3.4092
-3.2628 -3.0713 -2.9130 -2.7436 -2.5687 -2.4472
-2.3081 -2.2032 -2.1360 -2.0605 -2.0089 -1.9472
-1.8911 -1.8386 -1.7769 -1.6692 -1.4980 -1.3645
-1.2135 -1.0726 -0.9769 -0.8839 -0.8121 -0.7946
-0.8130 -0.8250 -0.8821 -0.9253 -0.9585 -0.9981
-1.0367 -1.0781 -1.0653 -1.0772 -1.0662 -1.0533
-1.0441 -0.9704 -0.8738 -0.7228 -0.6013 -0.5037
-0.3693 -0.2680 -0.1308 0.0239 0.1325 0.2688
0.3222 0.4216 0.4538 0.3102 0.4685 0.6527
0.5670 0.3976 0.3617 0.4345 0.3737 0.3369
0.3332 0.3461 0.3645 0.2421 0.1657 0.2365
0.2172 0.0303 -0.1133 0.1113 0.3921 0.3618
0.5855 0.8386 1.0154 1.5788 1.7878 1.8467
2.4442 2.7904 2.9524 3.4026 3.7110 3.9265
4.3141 4.5415 4.6363 4.8738 4.9475 5.0570
5.3304 5.4962 5.6186 5.7180 5.7282 5.7024
5.6297 5.4566 5.2927 5.0515 4.8002 4.6363
4.4291 4.1686 3.9191 3.6880 3.4247 3.2019
3.0362 2.9165 2.8604 2.8429 2.8650 2.9267
3.0510 3.2139 3.3566 3.5012 3.6936 3.8934
4.0471 4.2018 4.4126 4.6216 4.8315 5.0681
5.2798 5.4842 5.6591 5.7613 5.8663 5.9731
6.0237 6.0697 6.0974 6.0762 6.0311 5.9584
5.8562 5.7392 5.5984 5.4364 5.2633 5.0580
4.8674 4.6630 4.4283 4.2451 4.0453 3.8041
3.6052 3.4165 3.2093 3.0298 2.8770 2.7601
2.6781 2.6091 2.5235 2.4277 2.3522 2.3016
2.2813 2.2187 2.0834 1.8901 1.6977 1.4583
1.1324 0.8139 0.4741 0.0948 -0.2476 -0.5137
-0.8138 -1.1029 -1.3616 -1.6663 -1.9324 -2.1662
-2.4019 -2.6183 -2.7361 -2.8236 -2.8742 -2.8751
-2.9064 -2.9018 -2.8825 -2.7785 -2.5934 -2.3771
-2.0686 -1.6903 -1.2723 -0.8543 -0.4179 0.0516
0.5082 0.9437 1.3782 1.8432 2.3191 2.6966
3.0151 3.2499 3.3687 3.4598 3.4644 3.4000
3.3291 3.2306 3.0676 2.8752 2.6496 2.4296
2.2565 2.0190 1.7115 1.3792 1.0818 0.7568
0.3987 0.0102 -0.4667 -0.9952 -1.5936 -2.2647
-2.9635 -3.7488 -4.5313 -5.3313 -6.2465 -7.0364
-8.0629 -9.1907 -10.0653 -11.0881 -12.0695 -13.0104
-14.0083 -14.9345 -15.8321 -16.6552 -17.4441 -18.1908
-18.8444 -19.3674 -19.7780 -20.1131 -20.3128 -20.4040
-20.4252 -20.3497 -20.1517 -19.8507 -19.4787 -19.0525
-18.6180 -18.1668 -17.6826 -17.1864 -16.7003 -16.1516
-15.5780 -15.0173 -14.3775 -13.7404 -13.0656 -12.3503
-11.6635 -10.9573 -10.2659 -9.5791 -8.9089 -8.2958
-7.7351 -7.2103 -6.7113 -6.2437 -5.7999 -5.3598
-4.9124 -4.5055 -4.1096 -3.7257 -3.4127 -3.1236
-2.8603 -2.6329 -2.4193 -2.2131 -2.0271 -1.8614
-1.7270 -1.6082 -1.4701 -1.3615 -1.2694 -1.1581
-1.0531 -0.9233 -0.7769 -0.6591 -0.5357 -0.4317
-0.3553 -0.2917 -0.2383 -0.1757 -0.1417 -0.0929
-0.0478 -0.0063 0.0544 0.0710 0.1014 0.1281
0.1152 0.0959 0.0876 0.0692 0.0342 0.0075
-0.0487 -0.0846 -0.1159 -0.1361 -0.1159 -0.1149
-0.0772 -0.0422 -0.0137 0.0812 0.1530 0.2146
0.3260 0.4061 0.4595 0.5185 0.5792 0.6520
0.6777 0.7109 0.7560 0.7873 0.8140 0.8011
0.8048 0.7882 0.7578 0.7173 0.6326 0.5571
0.4595 0.3813 0.3178 0.2717 0.2441 0.1751
0.1576 0.1217 0.0545 0.0618 0.0250 -0.0192
-0.0137 -0.0486 -0.0532 -0.0008 0.0747 0.1852
0.2966 0.4724 0.6630 0.8131 1.0322 1.2439
1.4428 1.6122 1.7890 1.9970 2.1296 2.2631
2.3478 2.4058 2.4546 2.4362 2.3994 2.3524
2.2907 2.1959 2.1029 1.9915 1.8755 1.7475
1.5846 1.4447 1.2651 1.0534 0.8370 0.6235
0.4421 0.2423 0.0656 -0.0910 -0.2410 -0.3874
-0.5531 -0.7124 -0.8891 -1.0843 -1.2905 -1.4922
-1.6965 -1.8982 -2.1145 -2.3732 -2.6024 -2.8446
-3.1198 -3.3979 -3.6906 -3.9862 -4.2844 -4.5671
-4.8506 -5.1250 -5.3643 -5.6046 -5.8357 -6.0557
-6.2841 -6.4930 -6.6928 -6.8815 -7.0445 -7.2084
-7.3612 -7.4671 -7.5619 -7.6797 -7.7672 -7.8280
-7.9283 -8.0102 -8.0351 -8.0526 -8.0480 -7.9927
-7.8961 -7.7930 -7.6171 -7.3630 -7.0896 -6.7665
-6.4313 -6.1266 -5.8688 -5.6663 -5.4831 -5.3100
-5.1682 -5.0421 -4.8911 -4.7162 -4.5431 -4.3461
-4.1279 -3.9171 -3.7109 -3.4890 -3.2634 -3.0775
-2.8814 -2.6742 -2.4864 -2.2691 -2.0500 -1.8199
-1.5777 -1.3466 -1.0972 -0.8486 -0.6037 -0.3652
-0.1240 0.0859 0.3243 0.6217 0.8113 1.0378
1.3296 1.5322 1.7734 1.9907 2.1923 2.4666
2.6406 2.8137 3.0531 3.2354 3.4278 3.6625
3.9203 4.1486 4.4046 4.7194 5.0177 5.3722
5.7377 6.0884 6.4880 6.8783 7.2650 7.6802
8.1019 8.5060 8.9028 9.3300 9.7424 10.1558
10.6134 11.0166 11.3885 11.7688 12.1094 12.4574
12.7548 13.0153 13.2620 13.4066 13.5253 13.5769
13.5382 13.4692 13.3210 13.0927 12.8321 12.4942
12.0422 11.5626 10.9945 10.3390 9.6642 8.9599
8.2676 7.6084 6.9686 6.4134 5.9669 5.5812
5.2636 4.9791 4.7793 4.6412 4.5317 4.4985
4.4866 4.4838 4.4709 4.4599 4.4461 4.4009
4.3623 4.2942 4.2159 4.1772 4.1321 4.0520
3.8983 3.7676 3.6469 3.4886 3.3422 3.1682
3.0136 2.8221 2.6287 2.4170 2.1822 1.9429
1.6998 1.5194 1.2699 0.9992 0.8142 0.6402
0.3713 0.1964 0.0243 -0.1783 -0.3854 -0.5907
-0.7196 -1.0676 -1.2471 -1.3815 -1.6264 -1.7130
-1.8962 -2.0803 -2.2120 -2.3639 -2.5397 -2.6612
-2.8067 -2.9531 -3.0654 -3.2845 -3.4235 -3.5865
-3.8369 -4.0017 -4.1876 -4.3856 -4.5402 -4.7308
-4.9287 -5.0788 -5.2077 -5.3136 -5.3743 -5.3937
-5.3513 -5.2445 -5.1129 -5.0042 -4.8965 -4.7934
-4.7511 -4.7428 -4.7483 -4.7759 -4.8210 -4.8459
-4.8486 -4.8302 -4.7842 -4.7566 -4.6912 -4.6157
-4.5807 -4.5283 -4.4500 -4.3616 -4.3018 -4.2226
-4.1526 -4.1269 -4.0799 -4.0431 -4.0191 -3.9897
-3.9390 -3.9105 -3.9160 -3.9234 -3.9271 -3.9418
-3.9915 -4.0173 -4.0652 -4.1591 -4.2484 -4.3552
-4.4813 -4.6323 -4.8007 -4.9747 -5.1653 -5.3559
-5.5326 -5.7076 -5.9110 -6.1126 -6.2618 -6.4560
-6.6687 -6.8289 -7.0047 -7.1539 -7.3049 -7.4328
-7.5212 -7.6271 -7.7072 -7.7661 -7.7965 -7.8333
-7.8480 -7.8259 -7.8140 -7.7725 -7.7063 -7.6344
-7.5359 -7.4291 -7.3233 -7.1944 -7.0535 -6.9044
-6.7322 -6.5288 -6.3188 -6.0970 -5.8640 -5.6192
-5.3577 -5.1349 -4.9213 -4.7059 -4.5144 -4.3183
-4.1452 -4.0136 -3.8865 -3.7521 -3.6094 -3.4741
-3.3498 -3.2237 -3.0745 -2.9097 -2.7458 -2.5553
-2.3675 -2.1833 -2.0010 -1.8519 -1.7322 -1.6098
-1.4873 -1.3879 -1.2535 -1.1467 -1.0408 -0.9276
-0.8447 -0.7536 -0.6790 -0.5842 -0.5271 -0.4746
-0.3733 -0.2343 -0.1386 -0.0695 0.0511 0.1137
0.2518 0.4064 0.5381 0.7535 0.9469 1.1991
1.4615 1.7147 2.0240 2.3591 2.6638 2.8489
3.2033 3.6673 3.9619 4.2925 4.6635 5.0179
5.3254 5.5869 5.8299 6.0776 6.2866 6.3602
6.5646 6.7957 6.8288 6.9319 7.1225 7.2155
7.2882 7.3821 7.4097 7.4116 7.4374 7.4871
7.4880 7.4723 7.4862 7.4346 7.4291 7.4171
7.3186 7.2735 7.1989 7.1787 7.0719 6.8887
6.8638 6.7414 6.5563 6.4606 6.3271 6.1918
6.0067 5.7545 5.7314 5.5989 5.3623 5.2361
5.1211 5.0235 4.7040 4.6064 4.5061 4.2916
4.1866 3.9730 3.8027 3.5274 3.4041 3.1776
2.8904 2.8084 2.5663 2.4144 2.3012 2.2294
2.1815 2.1852 2.1879 2.1833 2.3306 2.3886
2.4429 2.4963 2.6851 2.7624 2.8388 3.0883
3.1822 3.4538 3.6471 3.8847 4.3082 4.5751
4.8292 5.1331 5.4461 5.7186 6.0362 6.3106
6.6088 6.9062 7.1253 7.3941 7.5948 7.7633
7.9023 8.0082 8.1030 8.1518 8.2006 8.2255
8.2448 8.2347 8.1767 8.0681 7.9382 7.7753
7.5543 7.3868 7.2395 7.0775 6.9532 6.8464
6.7727 6.7092 6.6227 6.5334 6.4183 6.2563
6.0666 5.8512 5.5934 5.3586 5.1460 4.9112
4.6884 4.4629 4.2640 4.0734 3.8700 3.6702
3.4428 3.1998 2.9429 2.6879 2.3988 2.1198
1.8593 1.5794 1.3244 1.0731 0.8521 0.6395
0.4277 0.2500 0.0733 -0.1026 -0.2526 -0.3668
-0.4681 -0.5555 -0.6089 -0.6789 -0.7627 -0.8299
-0.8952 -0.9551 -1.0287 -1.0665 -1.0775 -1.1263
-1.1346 -1.1134 -1.1060 -1.0895 -1.0646 -1.0038
-0.9330 -0.8777 -0.7875 -0.6798 -0.5785 -0.4846
-0.3861 -0.3152 -0.2729 -0.2268 -0.2139 -0.1863
-0.1605 -0.1532 -0.1467 -0.1458 -0.1246 -0.1228
-0.1348 -0.1458 -0.1504 -0.1568 -0.1513 -0.1568
-0.1845 -0.2139 -0.2682 -0.3124 -0.3640 -0.4340
-0.4846 -0.5361 -0.6080 -0.6724 -0.7221 -0.7985
-0.8666 -0.9154 -0.9946 -1.0452 -1.0480 -1.0627
-1.0462 -0.9928 -0.9219 -0.8252 -0.7166 -0.6061
-0.4754 -0.3087 -0.1596 -0.0261 0.1083 0.2427
0.3394 0.4158 0.4793 0.4858 0.5189 0.5456
0.5152 0.4932 0.5042 0.5005 0.4913 0.5014
0.5199 0.5456 0.5429 0.5696 0.6073 0.6110
0.6349 0.6515 0.6322 0.6211 0.6128 0.5972
0.5926 0.5852 0.5650 0.5410 0.5392 0.5484
0.5742 0.6405 0.7095 0.8071 0.9609 1.1625
1.4276 1.7489 2.1181 2.5444 2.9706 3.4061
3.8590 4.2567 4.6480 5.0448 5.4177 5.7445
6.0575 6.4037 6.6946 6.9275 7.1429 7.3446
7.5499 7.7469 7.8730 7.9540 8.0341 8.0636
8.0479 7.9955 7.9218 7.8408 7.7294 7.6079
7.4928 7.3823 7.2166 7.0067 6.8207 6.6440
6.4700 6.2555 6.0400 5.8338 5.6432 5.4637
5.2584 5.1139 4.9611 4.7917 4.6453 4.5495
4.4630 4.2918 4.1785 4.1168 3.9815 3.8241
3.7200 3.5737 3.3702 3.2450 3.1299 2.9532
2.7451 2.5398 2.3299 2.0675 1.7867 1.5114
1.2334 0.9655 0.7280 0.4877 0.2548 0.0486
-0.1521 -0.2985 -0.4072 -0.4808 -0.5784 -0.6649
-0.6944 -0.8233 -0.8997 -0.8408 -0.8960 -1.0138
-0.9862 -0.9605 -1.0451 -1.0534 -1.0313 -1.0497
-1.0590 -1.1077 -1.1519 -1.2256 -1.3186 -1.4051
-1.5358 -1.6942 -1.8940 -2.0799 -2.2696 -2.5237
-2.7649 -3.0070 -3.2722 -3.5373 -3.8356 -4.1541
-4.4883 -4.8299 -5.1383 -5.4623 -5.8352 -6.1473
-6.4180 -6.7227 -6.9998 -7.2585 -7.5117 -7.7667
-8.0171 -8.2482 -8.4636 -8.6597 -8.8972 -9.1117
-9.2885 -9.4892 -9.6687 -9.8354 -10.0038 -10.1428
-10.2579 -10.3500 -10.4190 -10.4678 -10.4816 -10.5056
-10.5148 -10.4522 -10.4181 -10.3850 -10.2690 -10.1741
-10.1207 -10.0314 -9.9375 -9.8399 -9.6945 -9.5665
-9.4588 -9.2977 -9.1200 -8.9819 -8.8309 -8.6597
-8.5161 -8.3402 -8.1487 -7.9987 -7.8283 -7.6396
-7.4656 -7.2787 -7.0992 -6.9068 -6.6914 -6.4787
-6.2439 -6.0165 -5.7597 -5.4715 -5.2211 -4.9744
-4.6798 -4.3787 -4.1117 -3.8595 -3.6385 -3.4074
-3.1856 -3.0143 -2.8191 -2.6157 -2.4223 -2.2548
-2.0891 -1.8957 -1.7567 -1.6426 -1.5330 -1.4492
-1.3885 -1.3461 -1.2835 -1.2430 -1.2089 -1.1509
-1.1068 -1.0405 -0.9806 -0.9751 -0.9594 -0.9107
-0.8609 -0.8370 -0.8131 -0.7707 -0.7256 -0.6372
-0.5534 -0.4531 -0.3306 -0.2229 -0.0940 0.0128
0.1481 0.3138 0.4464 0.5808 0.7115 0.8423
0.9665 1.0466 1.1286 1.2308 1.3238 1.3864
1.4757 1.5825 1.6266 1.6791 1.7224 1.7417
1.7657 1.7813 1.7767 1.7436 1.7279 1.7288
1.6975 1.6865 1.6791 1.6340 1.6147 1.5926
1.5889 1.6092 1.6248 1.6524 1.6874 1.7417
1.8310 1.9019 1.9148 2.0446 2.1569 2.1763
2.3079 2.3880 2.4562 2.5850 2.6707 2.8060
2.9561 3.0537 3.1503 3.2912 3.4182 3.5213
3.6613 3.7837 3.8832 3.9817 4.0986 4.2137
4.2781 4.3591 4.4751 4.5709 4.6473 4.7449
4.8102 4.8572 4.9474 4.9741 4.9778 4.9962
4.9723 4.9189 4.8231 4.7697 4.7550 4.7145
4.6703 4.6013 4.5359 4.4567 4.3352 4.2183
4.0793 3.9623 3.8675 3.7432 3.6134 3.5103
3.3750 3.1964 3.0279 2.8208 2.6063 2.3706
2.1156 1.8467 1.5494 1.2704 0.9749 0.6932
0.4105 0.1288 -0.1400 -0.4162 -0.6528 -0.8802
-1.0919 -1.2853 -1.4768 -1.6673 -1.8450 -1.9997
-2.1442 -2.2630 -2.3688 -2.4572 -2.5355 -2.6036
-2.6386 -2.6616 -2.6616 -2.6303 -2.5907 -2.5355
-2.4581 -2.3375 -2.2077 -2.0816 -1.9315 -1.8054
-1.6784 -1.5421 -1.4206 -1.3018 -1.1913 -1.0947
-1.0127 -0.9363 -0.8700 -0.7918 -0.7126 -0.6564
-0.6205 -0.5782 -0.5487 -0.5515 -0.5432 -0.5275
-0.5322 -0.5469 -0.5450 -0.5506 -0.5819 -0.6040
-0.6196 -0.6555 -0.6794 -0.6923 -0.7043 -0.7080
-0.7107 -0.7218 -0.7393 -0.7485 -0.7641 -0.7927
-0.8295 -0.8829 -0.9381 -1.0053 -1.0781 -1.1444
-1.2162 -1.2815 -1.3764 -1.4703 -1.5476 -1.6516
-1.7501 -1.8698 -2.0015 -2.1552 -2.3485 -2.5446
-2.7840 -3.0501 -3.3069 -3.5748 -3.8529 -4.1438
-4.4467 -4.7597 -5.0414 -5.3268 -5.6223 -5.8985
-6.1913 -6.4408 -6.6893 -6.9269 -7.1101 -7.2887
-7.4608 -7.6468 -7.7950 -7.9055 -8.0160 -8.1209
-8.1890 -8.2176 -8.2369 -8.2231 -8.2001 -8.1550
-8.1025 -8.0390 -7.9092 -7.7959 -7.6707 -7.5050
-7.3503 -7.1736 -6.9719 -6.7814 -6.5853 -6.3726
-6.1728 -5.9657 -5.7604 -5.5459 -5.3231 -5.1104
-4.8839 -4.6685 -4.4577 -4.2487 -4.0296 -3.8151
-3.5840 -3.3290 -3.1089 -2.8668 -2.6311 -2.4083
-2.1561 -1.9130 -1.6672 -1.4187 -1.1719 -0.9307
-0.6831 -0.4326 -0.1988 0.0581 0.3149 0.5423
0.7596 0.9557 1.1380 1.3018 1.4556 1.5550
1.6333 1.7124 1.7198 1.7594 1.7778 1.7566
1.7714 1.7493 1.7336 1.7391 1.7088 1.6664
1.6471 1.5992 1.5550 1.5504 1.5025 1.4344
1.4390 1.4169 1.3645 1.3958 1.4188 1.4133
1.4289 1.4574 1.5219 1.5900 1.6140 1.6554
1.7364 1.8027 1.8386 1.9159 1.9822 2.0439
2.1056 2.1507 2.2602 2.3164 2.3919 2.4821
2.5990 2.7335 2.8384 2.9894 3.0796 3.2048
3.3181 3.3853 3.4921 3.5878 3.6863 3.7996
3.9303 4.0583 4.2083 4.3934 4.5775 4.7340
4.8832 5.0931 5.2689 5.3683 5.5304 5.7136
5.8600 5.9944 6.1205 6.2310 6.3138 6.3626
6.4050 6.4584 6.4529 6.4390 6.4234 6.3985
6.3709 6.2899 6.2190 6.1472 6.0377 5.8747
5.6933 5.5009 5.2496 4.9964 4.7368 4.4477
4.1780 3.9128 3.6210 3.3153 3.0078 2.6967
2.3579 2.0053 1.6692 1.3286 0.9530 0.6059
0.2975 -0.0128 -0.2779 -0.5449 -0.7879 -1.0061
-1.2114 -1.3670 -1.5382 -1.7086 -1.8402 -1.9452
-2.0391 -2.1026 -2.1680 -2.2195 -2.2434 -2.2527
-2.2407 -2.2315 -2.2361 -2.2306 -2.1818 -2.1330
-2.0676 -2.0114 -1.9405 -1.8485 -1.7656 -1.6616
-1.5833 -1.4710 -1.3817 -1.2915 -1.1755 -1.1424
-1.1018 -1.0466 -1.0015 -0.9757 -0.9730 -0.9840
-1.0125 -1.0254 -1.0595 -1.0622 -1.0540 -1.0825
-1.0880 -1.0797 -1.0880 -1.1018 -1.1092 -1.1506
-1.1957 -1.2381 -1.3081 -1.3927 -1.4922 -1.5787
-1.6754 -1.7859 -1.8558 -1.9322 -2.0234 -2.1099
-2.2112 -2.3005 -2.4008 -2.5058 -2.6163 -2.7571
-2.9035 -3.0526 -3.2101 -3.3933 -3.5958 -3.7919
-4.0055 -4.2274 -4.4631 -4.7190 -4.9491 -5.2125
-5.4877 -5.7437 -6.0217 -6.2583 -6.5087 -6.7775
-6.9893 -7.1973 -7.4146 -7.6125 -7.8013 -8.0093
-8.1806 -8.3316 -8.4844 -8.6188 -8.7753 -8.8793
-8.9603 -9.0598 -9.1040 -9.1463 -9.1896 -9.1822
-9.1371 -9.0911 -9.0137 -8.8775 -8.7210 -8.5442
-8.3205 -8.0563 -7.7819 -7.4800 -7.1587 -6.8024
-6.4221 -6.0861 -5.7381 -5.3864 -5.0550 -4.7144
-4.3691 -4.0349 -3.6823 -3.3270 -2.9937 -2.6356
-2.2949 -1.9340 -1.5538 -1.1966 -0.8136 -0.4592
-0.1415 0.2037 0.5314 0.8343 1.1547 1.4466
1.7099 1.9446 2.1582 2.3681 2.5274 2.7318
2.9122 3.0080 3.1617 3.2501 3.3329 3.4664
3.5972 3.6865 3.7436 3.8669 3.9857 4.0805
4.1164 4.2904 4.2407 4.1652 4.5335 4.5694
4.4902 4.7802 4.8308 4.5896 4.7646 4.9993
5.0260 5.1531 4.9864 4.8437 5.0914 5.3694
5.4606 5.3749 5.6788 6.0378 6.0866 6.4235
6.7246 7.0082 7.2309 7.3810 7.8607 8.1258
8.2335 8.3799 8.6561 8.9295 8.9664 9.0934
9.2416 9.4405 9.5703 9.6366 9.7609 9.8189
9.8253 9.8658 9.8842 9.8189 9.8723 9.8170
9.6301 9.5003 9.3144 9.0308 8.6975 8.3993
8.0945 7.7447 7.4004 7.0947 6.7780 6.4770
6.2441 6.0176 5.7911 5.6088 5.4256 5.2369
5.0712 4.8852 4.7259 4.5639 4.4101 4.2951
4.1376 3.9977 3.8937 3.7602 3.6074 3.4591
3.2851 3.1056 2.9408 2.6738 2.4336 2.2909
2.0276 1.7698 1.5700 1.3426 1.1640 0.9679
0.8169 0.6816 0.4735 0.3456 0.2323 0.0878
-0.0669 -0.2252 -0.3274 -0.4489 -0.5852 -0.6966
-0.7951 -0.8715 -0.9360 -1.0068 -1.0952 -1.1937
-1.3033 -1.3861 -1.4616 -1.5703 -1.6494 -1.6936
-1.7249 -1.7397 -1.7351 -1.6918 -1.6246 -1.5509
-1.4552 -1.3512 -1.2342 -1.0796 -0.9369 -0.8098
-0.6717 -0.5373 -0.4434 -0.3366 -0.2252 -0.1764
-0.0982 -0.0484 -0.0033 0.0482 0.0611 0.0970
0.0961 0.0869 0.0224 -0.0669 -0.1405 -0.2841
-0.4333 -0.5677 -0.7444 -0.9194 -1.0878 -1.2950
-1.4773 -1.6568 -1.8731 -2.0619 -2.2092 -2.3712
-2.5130 -2.6511 -2.8002 -2.9088 -3.0276 -3.1280
-3.2191 -3.3066 -3.3296 -3.3563 -3.3811 -3.3867
-3.4152 -3.3949 -3.3480 -3.3498 -3.3498 -3.3471
-3.3332 -3.3351 -3.3314 -3.3240 -3.3406 -3.2918
-3.2467 -3.2099 -3.1592 -3.1279 -3.0976 -3.0801
-3.0469 -3.0119 -2.9567 -2.8637 -2.7514 -2.6372
-2.5111 -2.3307 -2.1990 -2.0664 -1.8731 -1.7111
-1.4920 -1.2563 -1.0243 -0.7426 -0.4728 -0.1432
0.1937 0.4423 0.7222 1.0426 1.2985 1.5185
1.7238 1.9135 2.0691 2.1427 2.1823 2.2145
2.2587 2.2560 2.1980 2.2283 2.2283 2.1842
2.1519 2.1087 2.0903 2.0046 1.8978 1.7294
1.6263 1.5977 1.4338 1.2598 1.1521 1.0407
0.8796 0.7185 0.5399 0.3917 0.2702 0.1385
0.0244 -0.0834 -0.1588 -0.2767 -0.3816 -0.4544
-0.4912 -0.5059 -0.5777 -0.6330 -0.6624 -0.6910
-0.7131 -0.7177 -0.7204 -0.7416 -0.7600 -0.8116
-0.8944 -0.9929 -1.1191 -1.2535 -1.4127 -1.5683
-1.7064 -1.8592 -1.9918 -2.0949 -2.2026 -2.3048
-2.3656 -2.4273 -2.4770 -2.5120 -2.5681 -2.5865
-2.6335 -2.6648 -2.6381 -2.6602 -2.6482 -2.6307
-2.6280 -2.5829 -2.5396 -2.4972 -2.4926 -2.4834
-2.4816 -2.5074 -2.4981 -2.4816 -2.4650 -2.4521
-2.4420 -2.4392 -2.4116 -2.4052 -2.4291 -2.4125
-2.4236 -2.4604 -2.4862 -2.4963 -2.5248 -2.5635
-2.5681 -2.5792 -2.5819 -2.5727 -2.5709 -2.5285
-2.4705 -2.3913 -2.2726 -2.1557 -2.0083 -1.8528
-1.6742 -1.5241 -1.3464 -1.1015 -0.9073 -0.6541
-0.4479 -0.2665 -0.0004 0.2058 0.4516 0.6965
0.9027 1.1412 1.3511 1.5600 1.7460 1.9651
2.1677 2.3150 2.5037 2.6501 2.7808 2.8858
2.9852 3.1067 3.1960 3.2688 3.3341 3.4124
3.4768 3.5385 3.5514 3.6112 3.7171 3.7144
3.7898 3.9418 4.0265 4.0946 4.1784 4.2492
4.3036 4.4306 4.5549 4.6470 4.7795 4.9213
5.0548 5.1653 5.2877 5.4102 5.4949 5.5777
5.6680 5.7416 5.7886 5.8033 5.8180 5.8447
5.8328 5.8042 5.7996 5.7573 5.6836 5.6275
5.5299 5.3909 5.2426 5.0696 4.8707 4.6516
4.4076 4.1388 3.8368 3.5505 3.2780 2.9512
2.6667 2.4108 2.1392 1.9155 1.7056 1.4929
1.2977 1.1256 0.9663 0.8199 0.6827 0.5732
0.5041 0.4664 0.4811 0.4995 0.5566 0.6588
0.7334 0.8659 1.0169 1.1421 1.2977 1.4506
1.6126 1.7838 1.9818 2.2009 2.3859 2.5977
2.8195 3.0515 3.2817 3.5054 3.7687 4.0044
4.2493 4.5080 4.7593 5.0318 5.2777 5.5364
5.7877 6.0132 6.2646 6.5214 6.7774 7.0259
7.2782 7.5102 7.7671 8.0083 8.2145 8.4345
8.5791 8.7890 8.9492 9.0136 9.1508 9.2355
9.3036 9.3506 9.3533 9.3404 9.2981 9.2631
9.2051 9.0965 8.9915 8.8470 8.6721 8.5708
8.4060 8.1924 7.9917 7.7763 7.5655 7.3077
7.0554 6.7397 6.3999 6.0842 5.7251 5.3403
4.9288 4.5531 4.1425 3.7439 3.3793 3.0028
2.6806 2.3501 2.0067 1.7286 1.4911 1.2260
0.9995 0.7850 0.5659 0.3928 0.1783 -0.0233
-0.2286 -0.4542 -0.6512 -0.8887 -1.1235 -1.3472
-1.5755 -1.8038 -2.0414 -2.3028 -2.5744 -2.8423
-3.1608 -3.5116 -3.8661 -4.2426 -4.6210 -5.0205
-5.4597 -5.8795 -6.3131 -6.7927 -7.2604 -7.7235
-8.1709 -8.6156 -9.0925 -9.5850 -10.0601 -10.5112
-10.9715 -11.4631 -11.9428 -12.4040 -12.9187 -13.3992
-13.8421 -14.3125 -14.7645 -15.2064 -15.6023 -16.0037
-16.4189 -16.7890 -17.1766 -17.5228 -17.8229 -18.1037
-18.3624 -18.5999 -18.7767 -18.9414 -19.0519 -19.1237
-19.1965 -19.2084 -19.2020 -19.1587 -19.0731 -18.9460
-18.7638 -18.5704 -18.3366 -18.0880 -17.7962 -17.4472
-17.0725 -16.6665 -16.2357 -15.7395 -15.2396 -14.7212
-14.1716 -13.6321 -13.0586 -12.4951 -11.9308 -11.3913
-10.8628 -10.3141 -9.8244 -9.3373 -8.8494 -8.3946
-7.9435 -7.5265 -7.1260 -6.7181 -6.3269 -5.9724
-5.6272 -5.2672 -4.9293 -4.6237 -4.3466 -4.0639
-3.7905 -3.5695 -3.3615 -3.1571 -2.9638 -2.7944
-2.6296 -2.4224 -2.2245 -2.0643 -1.9041 -1.7393
-1.5791 -1.4327 -1.2615 -1.0866 -0.9789 -0.8325
-0.6953 -0.5885 -0.4329 -0.3841 -0.3197 -0.1899
-0.1024 -0.0076 0.0955 0.2180 0.3211 0.4003
0.4840 0.5623 0.6102 0.6976 0.7842 0.8311
0.8772 0.8937 0.9572 1.0346 1.0871 1.1230
1.1810 1.2657 1.3191 1.3669 1.4084 1.4875
1.5640 1.6100 1.6698 1.7103 1.7821 1.8834
1.9322 1.9663 2.0022 2.0501 2.1182 2.1688
2.2222 2.2480 2.2913 2.3815 2.4441 2.4957
2.5619 2.6411 2.7010 2.7553 2.8575 2.9551
2.9946 3.0729 3.1640 3.2174 3.2681 3.3224
3.3905 3.4246 3.4568 3.4936 3.5323 3.5949
3.6382 3.6971 3.7625 3.8241 3.9006 3.9632
4.0322 4.0994 4.1519 4.2394 4.3204 4.3701
4.4612 4.5312 4.5478 4.5837 4.6325 4.6656
4.6969 4.7531 4.7954 4.8286 4.8912 4.9547
5.0127 5.0873 5.1628 5.2291 5.3101 5.4003
5.4739 5.5715 5.6710 5.7419 5.8155 5.8947
6.0088 6.0963 6.1377 6.2602 6.3412 6.3789
6.4995 6.5207 6.5447 6.6155 6.6036 6.6100
6.6294 6.6441 6.6367 6.6174 6.6330 6.6358
6.6082 6.5741 6.5530 6.5235 6.4618 6.3955
6.3182 6.2418 6.1396 6.0033 5.8358 5.6056
5.3709 5.1527 4.9722 4.8406 4.7651 4.7329
4.7310 4.8019 4.8839 5.0081 5.1002 5.0965
5.1260 5.0956 5.0100 4.9336 4.8360 4.7080
4.5819 4.4622 4.2882 4.1299 3.9743 3.7929
3.6014 3.4026 3.2378 3.0739 2.8585 2.6578
2.4985 2.2849 2.0907 1.9369 1.7675 1.5825
1.4250 1.2971 1.1093 0.9288 0.7926 0.6545
0.4832 0.3313 0.2310 0.0947 -0.0581 -0.1759
-0.2698 -0.3674 -0.4540 -0.5175 -0.6059 -0.7053
-0.7403 -0.8213 -0.9226 -0.9723 -1.0524 -1.1306
-1.2172 -1.2816 -1.3424 -1.4409 -1.5090 -1.5781
-1.6241 -1.6876 -1.8183 -1.8782 -1.9555 -2.1065
-2.1571 -2.2179 -2.3348 -2.4223 -2.5060 -2.5871
-2.6662 -2.7252 -2.7905 -2.8568 -2.9213 -2.9544
-2.9590 -3.0032 -2.9986 -2.9572 -2.9645 -2.9875
-2.9728 -2.9424 -2.9341 -2.9120 -2.9019 -2.8596
-2.7988 -2.7647 -2.6828 -2.5898 -2.4729 -2.3468
-2.2271 -2.0752 -1.9371 -1.7778 -1.5863 -1.3976
-1.1812 -0.9391 -0.6979 -0.4309 -0.1630 0.1086
0.3783 0.6195 0.8967 1.1554 1.3864 1.6313
1.8716 2.1018 2.2969 2.4967 2.6947 2.8530
3.0077 3.1476 3.2774 3.3870 3.4993 3.6300
3.7064 3.7819 3.8473 3.8943 3.9449 3.9780
4.0498 4.1530 4.2680 4.3251 4.3905 4.4826
4.5313 4.5746 4.5903 4.6234 4.6243 4.6032
4.6124 4.5755 4.5000 4.4319 4.3426 4.2128
4.0904 3.9274 3.7617 3.6291 3.4229 3.1955
2.9994 2.7711 2.5299 2.2813 2.0088 1.7510
1.4702 1.1287 0.8037 0.5174 0.1823 -0.1464
-0.4226 -0.7181 -1.0035 -1.2622 -1.5273 -1.8210
-2.0908 -2.3246 -2.6008 -2.8669 -3.1071 -3.3566
-3.6264 -3.9035 -4.1769 -4.4743 -4.7606 -5.0515
-5.3277 -5.5965 -5.8644 -6.1010 -6.3800 -6.6102
-6.8072 -7.0180 -7.2040 -7.3927 -7.5455 -7.6772
-7.7913 -7.9193 -8.0261 -8.0813 -8.1605 -8.2286
-8.3041 -8.3630 -8.3768 -8.4063 -8.4321 -8.4339
-8.4560 -8.4385 -8.3557 -8.2747 -8.1504 -8.0196
-7.8696 -7.6523 -7.4148 -7.1478 -6.8845 -6.6074
-6.2511 -5.9160 -5.5873 -5.1933 -4.8223 -4.4779
-4.1373 -3.7994 -3.4809 -3.2277 -2.9718 -2.7250
-2.5363 -2.3503 -2.1727 -2.0033 -1.8596 -1.7317
-1.5908 -1.4656 -1.3459 -1.2502 -1.1517 -1.0522
-0.9712 -0.8718 -0.7678 -0.6821 -0.6122 -0.5054
-0.3977 -0.3286 -0.2807 -0.2145 -0.1417 -0.0929
-0.0239 0.0185 0.0461 0.0884 0.1326 0.1971
0.2753 0.3425 0.4116 0.5018 0.5828 0.7126
0.8213 0.9253 1.0754 1.1619 1.2733 1.4077
1.5246 1.6314 1.7235 1.8570 1.9758 2.0982
2.2483 2.3891 2.5272 2.6865 2.8439 2.9701
3.1026 3.2122 3.3245 3.4175 3.4727 3.5151
3.5206 3.5086 3.4635 3.3936 3.2932 3.1671
3.0216 2.8623 2.6828 2.4886 2.3192 2.1525
1.9887 1.8266 1.6858 1.5284 1.3939 1.3046
1.1877 1.0993 0.9981 0.9281 0.8858 0.8213
0.7670 0.7145 0.7210 0.6970 0.6574 0.6538
0.6160 0.5746 0.5267 0.4669 0.4153 0.3647
0.3002 0.2542 0.2211 0.1990 0.1971 0.2220
0.2579 0.2883 0.3610 0.4310 0.5074 0.6004
0.7026 0.7909 0.8683 0.9788 1.0671 1.1666
1.2540 1.3461 1.4428 1.5376 1.6573 1.7503
1.8644 1.9712 2.0780 2.2198 2.3487 2.4693
2.5834 2.7188 2.8909 3.0171 3.1174 3.2362
3.3190 3.4120 3.4949 3.5704 3.6615 3.7471
3.8171 3.8843 3.9874 4.0666 4.1642 4.2609
4.3373 4.4367 4.5380 4.6512 4.7414 4.8298
4.9071 4.9550 4.9900 4.9854 4.9449 4.8749
4.7626 4.6043 4.4238 4.2268 4.0105 3.7554
3.4885 3.2436 3.0318 2.8155 2.5835 2.3809
2.1471 1.9326 1.7319 1.4806 1.2311 0.9972
0.7302 0.4430 0.1972 -0.0919 -0.4095 -0.6958
-1.0024 -1.3145 -1.6312 -1.9341 -2.2370 -2.5693
-2.8740 -3.2000 -3.5176 -3.8103 -4.1445 -4.4732
-4.7853 -5.0799 -5.3727 -5.6663 -5.9177 -6.1543
-6.3872 -6.6072 -6.8006 -6.9874 -7.1439 -7.2655
-7.4063 -7.5159 -7.6107 -7.6788 -7.7543 -7.8547
-7.9357 -8.0360 -8.0830 -8.1438 -8.1944 -8.2045
-8.2690 -8.2975 -8.3076 -8.3196 -8.3352 -8.3850
-8.4255 -8.4586 -8.5102 -8.5810 -8.6621 -8.7265
-8.7661 -8.8241 -8.8388 -8.8121 -8.8094 -8.7698
-8.6869 -8.6041 -8.5028 -8.3794 -8.2441 -8.0581
-7.8335 -7.5914 -7.3161 -6.9929 -6.6256 -6.2334
-5.7970 -5.3385 -4.8911 -4.4492 -4.0524 -3.6860
-3.3757 -3.1401 -2.9016 -2.6890 -2.4919 -2.2756
-2.0574 -1.8493 -1.6440 -1.4608 -1.2813 -1.1027
-0.9950 -0.9103 -0.8090 -0.7234 -0.6562 -0.5871
-0.5218 -0.4223 -0.2852 -0.1774 -0.0403 0.1374
0.2893 0.4624 0.6475 0.8187 0.9909 1.1584
1.3103 1.4328 1.5607 1.6878 1.8157 1.9336
2.0662 2.2190 2.3654 2.5615 2.7658 2.9573
3.1102 3.2437 3.4554 3.5907 3.6248 3.7914
3.9479 4.0529 4.0916 4.1671 4.3613 4.3521
4.4074 4.4644 4.4276 4.5059 4.4350 4.3521
4.3586 4.3512 4.3070 4.1993 4.2094 4.2251
4.1726 4.1827 4.1984 4.2242 4.2334 4.2435
4.2509 4.2076 4.1965 4.1514 4.0990 4.1026
4.0575 4.0198 4.0124 3.9894 3.9949 4.0299
4.0262 3.9977 4.0051 3.9848 3.9526 3.9277
3.8679 3.8145 3.7583 3.6801 3.6193 3.5558
3.4748 3.3919 3.3164 3.2428 3.1608 3.0798
3.0163 2.9491 2.8782 2.8128 2.7235 2.6499
2.5836 2.5265 2.4842 2.4538 2.4639 2.4768
2.5044 2.5937 2.6840 2.7337 2.8764 3.0439
3.1645 3.3330 3.5135 3.6985 3.9268 4.1469
4.3522 4.5805 4.7987 5.0224 5.2581 5.4910
5.7202 5.9522 6.1778 6.3932 6.6151 6.8314
7.0441 7.2292 7.4115 7.5707 7.7024 7.8368
7.9519 8.0412 8.0946 8.1213 8.1148 8.0817
8.0421 7.9482 7.8442 7.7410 7.5634 7.4078
7.2329 7.0064 6.8011 6.5359 6.2717 6.0351
5.7865 5.5398 5.3124 5.0832 4.8328 4.6330
4.4157 4.1653 3.9416 3.7004 3.4730 3.2594
3.0292 2.8258 2.6371 2.4262 2.1979 1.9613
1.7275 1.4955 1.2506 0.9854 0.7231 0.4653
0.1891 -0.0991 -0.3799 -0.6680 -0.9525 -1.2462
-1.5583 -1.8142 -2.0803 -2.3749 -2.6446 -2.9208
-3.1602 -3.4207 -3.7153 -3.9786 -4.2493 -4.5439
-4.8486 -5.1377 -5.3936 -5.6652 -5.9506 -6.2047
-6.4717 -6.7672 -7.0324 -7.2874 -7.5359 -7.7615
-7.9935 -8.2181 -8.4078 -8.5818 -8.7420 -8.8460
-8.9795 -9.1176 -9.2225 -9.3284 -9.3864 -9.4711
-9.5208 -9.5125 -9.5006 -9.4619 -9.3837 -9.2713
-9.2023 -9.0706 -8.9353 -8.8368 -8.6683 -8.5385
-8.3774 -8.1850 -8.0340 -7.8480 -7.6501 -7.4503
-7.2386 -7.0158 -6.7810 -6.5269 -6.2084 -5.8769
-5.5455 -5.1533 -4.7510 -4.3450 -3.9160 -3.5201
-3.1675 -2.8342 -2.5203 -2.2165 -1.9357 -1.6687
-1.3842 -1.1237 -0.8622 -0.6008 -0.3826 -0.1552
0.0455 0.2333 0.4166 0.5721 0.7425 0.8723
0.9708 1.0527 1.1199 1.1945 1.2396 1.2488
1.2645 1.2424 1.2553 1.2267 1.1439 1.2405
1.2737 1.2203 1.2359 1.2240 1.1844 1.1439
1.1227 1.0767 1.0242 0.9524 0.9119 0.9441
0.9100 0.8686 0.8898 0.8852 0.9303 0.9496
0.9358 0.9699 0.9782 1.0500 1.1025 1.1770
1.2617 1.3114 1.3547 1.4173 1.5434 1.5499
1.6346 1.6769 1.7432 1.8601 1.8749 2.0249
2.1465 2.3637 2.5874 2.7522 3.1223 3.4308
3.6996 4.0568 4.1802 4.5346 4.9922 5.1275
5.4635 5.7591 6.0343 6.2838 6.5204 6.8914
7.0102 7.2763 7.6151 7.7237 8.0478 8.3580
8.5237 8.7530 8.9574 9.1875 9.3643 9.5548
9.6653 9.6865 9.8016 9.9360 10.0023 10.0142
10.0989 10.0363 10.1496 10.0060 10.0225 9.9553
9.1590 9.5751 9.7353 9.1277 9.0163 9.0190
8.9049 8.4409 8.2743 8.0432 7.7237 7.5046
7.1888 7.0471 6.8887 6.7239 6.5554 6.3916
6.3013 6.1522 6.0049 5.8346 5.6219 5.4912
5.3236 5.0972 4.9130 4.7142 4.5089 4.3229
4.1194 3.9243 3.7429 3.5533 3.3940 3.2642
3.0856 2.9070 2.8075 2.6814 2.5461 2.4015
2.2054 2.0462 1.8574 1.6779 1.5803 1.4441
1.3014 1.2075 1.0869 0.9451 0.8088 0.6275
0.4516 0.2859 0.0714 -0.1007 -0.2646 -0.5067
-0.7341 -0.9523 -1.1954 -1.4412 -1.6971 -1.9659
-2.2605 -2.5294 -2.8240 -3.1425 -3.4307 -3.7658
-4.1083 -4.4563 -4.8098 -5.1440 -5.4874 -5.7958
-6.0959 -6.4135 -6.7468 -7.0764 -7.4087 -7.7567
-8.0808 -8.4076 -8.7289 -9.0429 -9.3411 -9.6081
-9.8751 -10.1310 -10.3584 -10.5822 -10.8160 -11.0259
-11.1953 -11.3343 -11.4871 -11.6335 -11.7412 -11.8536
-11.9567 -12.0358 -12.1215 -12.2108 -12.2734 -12.3452
-12.4032 -12.4124 -12.4188 -12.4050 -12.3884 -12.3360
-12.2531 -12.1804 -12.0671 -11.9134 -11.7062 -11.4844
-11.2478 -10.9541 -10.6539 -10.3308 -10.0077 -9.7103
-9.3844 -9.0714 -8.7611 -8.4085 -8.0403 -7.6794
-7.3157 -6.9346 -6.5764 -6.2128 -5.8464 -5.4956
-5.1393 -4.7545 -4.3724 -4.0327 -3.6764 -3.3395
-3.0366 -2.7401 -2.4363 -2.1472 -1.8950 -1.6391
-1.3739 -1.1318 -0.9477 -0.7470 -0.5509 -0.3824
-0.2286 -0.0675 0.0899 0.2133 0.3643 0.4554
0.5281 0.6322 0.7169 0.7031 0.7077 0.8135
0.7850 0.7675 0.7399 0.7307 0.7509 0.6248
0.6607 0.7003 0.5917 0.6156 0.6303 0.6000
0.5733 0.5935 0.5908 0.4057 0.4711 0.6349
0.6000 0.5944 0.7427 0.9664 1.0686 1.2067
1.4313 1.5933 1.7149 1.9487 2.2138 2.5038
2.7607 2.9724 3.3545 3.6878 3.9419 4.3037
4.7392 5.1442 5.5420 6.0133 6.4580 6.8078
7.2147 7.6502 8.0645 8.3628 8.6436 9.0901
9.3497 9.5854 9.8579 10.1175 10.3956 10.5318
10.6856 10.8071 10.8715 10.8384 10.9065 10.7463
10.6303 10.4269 9.6858 9.7668 9.7060 8.9916
8.6482 8.3591 7.8868 7.3980 7.1015 6.7388
6.4120 6.0888 5.7537 5.5309 5.2501 4.9463
4.6444 4.3811 4.0865 3.7523 3.4429 3.1640
2.9126 2.6991 2.5149 2.3419 2.2065 2.0786
1.9165 1.7720 1.6505 1.4553 1.2500 1.0263
0.7814 0.6175 0.4104 0.2060 0.0412 -0.1264
-0.2727 -0.3970 -0.4652 -0.5609 -0.6557 -0.7110
-0.7561 -0.8187 -0.8988 -0.9733 -1.0930 -1.1832
-1.2753 -1.4189 -1.5220 -1.6564 -1.7964 -1.9280
-2.0901 -2.2291 -2.3865 -2.5651 -2.7456 -2.9122
-3.0862 -3.2804 -3.4554 -3.6459 -3.8420 -4.0197
-4.1854 -4.3447 -4.4837 -4.6338 -4.7848 -4.8906
-5.0103 -5.1033 -5.1696 -5.2635 -5.3500 -5.4366
-5.5075 -5.5664 -5.6050 -5.6216 -5.6630 -5.6953
-5.7155 -5.7302 -5.7468 -5.7772 -5.7753 -5.7892
-5.8159 -5.8223 -5.8462 -5.8665 -5.8840 -5.9162
-5.9411 -5.9632 -5.9705 -5.9650 -5.9622 -5.9429
-5.9217 -5.8904 -5.8508 -5.8186 -5.7624 -5.7173
-5.6842 -5.6207 -5.5627 -5.5157 -5.4605 -5.4108
-5.3436 -5.2570 -5.1631 -5.0646 -4.9514 -4.8197
-4.6917 -4.5582 -4.4192 -4.2600 -4.0731 -3.8751
-3.6864 -3.5345 -3.3550 -3.1368 -2.9674 -2.8035
-2.6129 -2.4380 -2.2649 -2.0817 -1.9068 -1.7190
-1.5570 -1.4133 -1.2688 -1.1574 -1.0396 -0.9236
-0.7965 -0.6768 -0.5930 -0.5065 -0.4273 -0.3574
-0.3104 -0.2717 -0.2174 -0.1824 -0.1622 -0.1336
-0.1456 -0.1585 -0.1281 -0.1778 -0.2183 -0.2395
-0.3316 -0.4025 -0.4632 -0.5286 -0.6234 -0.6851
-0.7486 -0.8407 -0.9226 -1.0184 -1.0736 -1.1334
-1.2006 -1.2596 -1.2844 -1.2982 -1.3268 -1.3019
-1.2476 -1.2098 -1.1647 -1.0782 -0.9714 -0.8499
-0.7283 -0.5912 -0.4245 -0.2395 -0.0646 0.1463
0.4040 0.6167 0.8920 1.2078 1.4867 1.7970
2.0999 2.4469 2.7977 3.1337 3.5121 3.8592
4.2247 4.6160 4.9934 5.3690 5.7382 6.1046
6.4370 6.7684 7.0897 7.3825 7.6762 7.9339
8.1751 8.3666 8.5121 8.6557 8.7469 8.8325
8.9071 8.9439 8.9678 8.9724 8.9724 8.9448
8.8712 8.7607 8.6097 8.4200 8.1927 7.9293
7.6449 7.3107 6.9700 6.6368 6.2823 5.9270
5.5615 5.2052 4.8526 4.5018 4.1465 3.7736
3.4201 3.0592 2.6992 2.3595 2.0253 1.6773
1.3348 1.0393 0.7088 0.3838 0.0911 -0.2109
-0.4963 -0.8038 -1.0791 -1.3488 -1.6360 -1.9205
-2.2105 -2.4812 -2.7776 -3.0768 -3.3678 -3.6614
-3.9422 -4.2239 -4.4909 -4.7340 -4.9770 -5.2201
-5.4834 -5.7393 -5.9630 -6.1904 -6.3874 -6.5854
-6.7713 -6.9186 -7.0696 -7.1718 -7.2676 -7.3909
-7.4692 -7.5530 -7.6248 -7.6616 -7.7177 -7.7776
-7.8393 -7.8917 -7.9286 -7.9424 -7.9562 -7.9728
-7.9451 -7.9065 -7.8807 -7.8328 -7.7536 -7.6689
-7.5852 -7.4913 -7.3651 -7.2316 -7.1000 -6.9527
-6.7906 -6.6369 -6.4988 -6.3128 -6.1333 -5.9667
-5.7798 -5.6076 -5.4217 -5.2338 -5.0405 -4.8306
-4.6078 -4.4025 -4.2165 -4.0435 -3.8980 -3.7443
-3.5997 -3.4745 -3.3576 -3.2517 -3.1468 -3.0436
-2.9396 -2.8604 -2.7895 -2.7269 -2.6929 -2.6487
-2.6045 -2.5879 -2.5603 -2.5373 -2.4977 -2.4333
-2.4158 -2.4066 -2.3799 -2.3513 -2.3357 -2.3255
-2.3117 -2.2998 -2.2629 -2.2519 -2.2381 -2.1920
-2.1663 -2.1175 -2.0733 -2.0116 -1.9416 -1.8763
-1.7630 -1.6682 -1.5402 -1.4288 -1.2935 -1.1011
-0.9795 -0.7660 -0.5533 -0.3701 -0.1445 0.0553
0.3020 0.5294 0.7973 1.0367 1.2760 1.5863
1.8330 2.1193 2.4360 2.7536 3.0593 3.3576
3.6715 3.9910 4.3132 4.5977 4.8886 5.1777
5.4741 5.7291 6.0090 6.3174 6.5706 6.8385
7.0714 7.3007 7.5308 7.7582 7.9414 8.0970
8.3033 8.4736 8.6255 8.7673 8.9321 9.0876
9.2027 9.3104 9.3924 9.4310 9.4642 9.5185
9.4909 9.4798 9.4890 9.4329 9.4062 9.3629
9.2883 9.1908 9.0637 8.9275 8.7930 8.6467
8.4865 8.3235 8.1256 7.9599 7.8006 7.5907
7.3983 7.2160 7.0540 6.9122 6.7861 6.7051
6.6305 6.5624 6.5209 6.4740 6.4187 6.3644
6.3037 6.2512 6.1803 6.1057 6.0440 5.9409
5.8277 5.7089 5.6021 5.5082 5.3757 5.2265
5.0976 4.9862 4.8472 4.6926 4.5480 4.4210
4.2810 4.1310 3.9855 3.8290 3.6799 3.5068
3.3549 3.2039 3.0189 2.8651 2.7049 2.5300
2.3818 2.2207 2.0669 1.9426 1.7953 1.6572
1.5283 1.3893 1.2650 1.1362 0.9870 0.8738
0.7697 0.6335 0.5203 0.4079 0.2956 0.1769
0.0415 -0.0920 -0.2282 -0.3599 -0.5044 -0.6674
-0.8027 -0.9251 -1.0641 -1.2041 -1.3670 -1.5134
-1.6662 -1.8430 -2.0050 -2.2103 -2.4184 -2.6173
-2.8308 -3.0398 -3.2727 -3.5232 -3.7874 -4.0627
-4.3232 -4.5718 -4.8424 -5.1214 -5.3893 -5.6784
-5.9693 -6.2639 -6.5659 -6.8236 -7.0704 -7.3134
-7.5252 -7.7608 -7.9974 -8.2230 -8.4559 -8.6907
-8.9254 -9.1317 -9.3434 -9.5266 -9.6684 -9.8304
-9.9685 -10.1075 -10.2465 -10.3340 -10.4426 -10.5375
-10.5991 -10.6682 -10.7023 -10.7326 -10.7391 -10.7041
-10.7069 -10.7124 -10.6654 -10.6304 -10.5826 -10.5181
-10.4638 -10.3754 -10.2861 -10.1609 -10.0182 -9.8516
-9.6361 -9.4290 -9.1998 -8.9567 -8.6759 -8.3730
-8.0692 -7.7304 -7.3705 -6.9985 -6.6192 -6.2160
-5.8256 -5.4141 -4.9759 -4.5395 -4.0580 -3.6087
-3.1328 -2.6457 -2.2222 -1.7536 -1.2942 -0.8652
-0.4252 -0.0072 0.4016 0.7698 1.1408 1.5487
1.9059 2.2769 2.6185 2.9361 3.2776 3.5391
3.8217 4.0464 4.2563 4.4634 4.6172 4.8556
5.0112 5.1567 5.2736 5.4154 5.6105 5.7201
5.8812 6.0156 6.1546 6.2559 6.3756 6.5349
6.6168 6.7844 6.8994 7.0458 7.2797 7.3865
7.5338 7.6958 7.8044 7.8993 7.9895 8.1451
8.2537 8.3623 8.5271 8.6662 8.8061 8.9193
9.0372 9.1440 9.2176 9.3253 9.3640 9.4257
9.5141 9.5196 9.5905 9.6264 9.6015 9.5923
9.5739 9.5610 9.5076 9.4524 9.4018 9.2996
9.2250 9.1569 9.0197 8.9000 8.7757 8.5916
8.4158 8.2473 8.0125 7.7989 7.6010 7.3276
7.0873 6.8636 6.5947 6.3351 6.0783 5.8233
5.5793 5.3454 5.1245 4.9174 4.7130 4.5187
4.3392 4.1744 4.0041 3.8356 3.6929 3.5475
3.4167 3.2805 3.1332 3.0218 2.9122 2.8100
2.7382 2.6830 2.6176 2.5725 2.5523 2.5265
2.5311 2.5274 2.5173 2.5200 2.5007 2.4850
2.4758 2.4418 2.3829 2.3396 2.3009 2.2798
2.2669 2.2807 2.3065 2.2807 2.3009 2.3175
2.3000 2.3046 2.2770 2.2650 2.2742 2.2715
2.2770 2.2908 2.3184 2.3230 2.3184 2.3194
2.3019 2.2963 2.2752 2.2310 2.1932 2.1297
2.0607 2.0027 1.9014 1.7937 1.7016 1.5764
1.4291 1.2929 1.1317 0.9550 0.7957 0.5950
0.3787 0.1522 -0.0890 -0.3376 -0.6083 -0.8890
-1.2159 -1.5491 -1.8879 -2.2626 -2.6383 -3.0139
-3.3996 -3.7983 -4.2227 -4.6637 -5.1046 -5.5907
-6.0805 -6.5519 -7.0426 -7.5038 -7.9623 -8.4235
-8.8663 -9.3202 -9.7759 -10.2289 -10.6782 -11.1118
-11.5325 -11.9229 -12.2699 -12.6299 -12.9825 -13.3139
-13.6435 -13.9501 -14.2778 -14.5669 -14.8192 -15.0779
-15.2657 -15.4627 -15.6312 -15.7518 -15.9037 -15.9976
-16.0731 -16.1007 -16.0611 -15.9865 -15.8245 -15.6339
-15.4065 -15.1340 -14.8606 -14.5669 -14.2502 -13.9096
-13.5671 -13.1998 -12.8122 -12.4439 -12.0536 -11.6485
-11.2554 -10.8457 -10.4277 -10.0125 -9.5844 -9.1186
-8.6518 -8.2265 -7.7993 -7.3703 -6.9440 -6.5343
-6.1136 -5.6864 -5.3320 -4.9702 -4.6093 -4.2760
-3.9308 -3.6095 -3.3195 -3.0589 -2.7745 -2.4973
-2.2543 -1.9910 -1.7470 -1.5224 -1.3023 -1.1035
-0.9037 -0.6828 -0.4867 -0.3025 -0.1120 0.0409
0.2259 0.3797 0.5012 0.6264 0.7083 0.8473
0.9753 1.0646 1.1622 1.2340 1.2957 1.3795
1.4522 1.5047 1.5691 1.6087 1.6235 1.6299
1.6658 1.6695 1.6336 1.6216 1.5968 1.5922
1.5599 1.5286 1.5498 1.5332 1.5121 1.5222
1.5544 1.5701 1.5968 1.6354 1.6483 1.7652
1.8591 1.8638 1.9687 2.0589 2.1096 2.2136
2.3452 2.4603 2.5763 2.7236 2.8350 3.0007
3.1471 3.2585 3.4555 3.6111 3.7842 3.9398
4.0843 4.2860 4.4682 4.6349 4.7803 4.9866
5.1504 5.2839 5.4773 5.6255 5.7544 5.8768
5.9965 6.0895 6.1908 6.3316 6.4329 6.5167
6.5940 6.6704 6.7339 6.7680 6.8030 6.8196
6.8426 6.8435 6.8389 6.8306 6.7791 6.7450
6.6916 6.6170 6.5287 6.4578 6.3703 6.2617
6.1935 6.0757 5.9597 5.8354 5.7157 5.6421
5.5353 5.4092 5.2932 5.1891 5.0750 4.9783
4.8706 4.7629 4.6699 4.5576 4.4683 4.3863
4.3201 4.2786 4.2602 4.2538 4.2317 4.2473
4.2851 4.2851 4.2860 4.3044 4.3173 4.3238
4.3348 4.3624 4.3818 4.3836 4.3845 4.3725
4.3707 4.3891 4.3882 4.3486 4.3017 4.2897
4.2658 4.1995 4.1313 4.0614 3.9748 3.8920
3.8008 3.6683 3.5495 3.4381 3.2908 3.1564
3.0091 2.8471 2.7117 2.5562 2.4088 2.2643
2.0977 1.9347 1.7635 1.6070 1.4440 1.2838
1.1218 0.9285 0.7545 0.5952 0.4138 0.1892
-0.0041 -0.2011 -0.4350 -0.6670 -0.8852 -1.0417
-1.2636 -1.5259 -1.7193 -1.8979 -2.0976 -2.2763
-2.4438 -2.6252 -2.8010 -2.9446 -3.0579 -3.2199
-3.3442 -3.4252 -3.5136 -3.5937 -3.6903 -3.7410
-3.8248 -3.8975 -3.9214 -3.9573 -3.9573 -3.9656
-3.9702 -3.9711 -3.9472 -3.8938 -3.8432 -3.7778
-3.7097 -3.6093 -3.4933 -3.3957 -3.3009 -3.1739
-3.0256 -2.8673 -2.7338 -2.6205 -2.4511 -2.2937
-2.1409 -1.9586 -1.8067 -1.6787 -1.5443 -1.4145
-1.2957 -1.1807 -1.0877 -0.9864 -0.8925 -0.8308
-0.7590 -0.6973 -0.6412 -0.5804 -0.5325 -0.4699
-0.4267 -0.4027 -0.3659 -0.3521 -0.3521 -0.3484
-0.3180 -0.2987 -0.2839 -0.2572 -0.2370 -0.1992
-0.1633 -0.1007 -0.0510 -0.0179 0.0235 0.0539
0.0972 0.1524 0.2178 0.2749 0.3209 0.3605
0.3946 0.4231 0.4489 0.4876 0.5400 0.5842
0.6091 0.6367 0.6745 0.6993 0.7232 0.7610
0.8061 0.8392 0.8770 0.9479 1.0004 1.0510
1.1440 1.2176 1.2839 1.3852 1.4819 1.5804
1.7028 1.8225 1.9477 2.0711 2.1926 2.3473
2.5176 2.6409 2.7542 2.9181 3.0488 3.1409
3.2863 3.4437 3.5625 3.6877 3.8120 3.8967
3.9768 4.0882 4.1600 4.2070 4.2806 4.3230
4.3681 4.4095 4.4279 4.4500 4.4703 4.5006
4.5117 4.5080 4.5117 4.5117 4.5062 4.5016
4.4740 4.4574 4.4694 4.4620 4.4463 4.4215
4.4206 4.4362 4.4012 4.3994 4.3929 4.3681
4.3939 4.3626 4.3359 4.3239 4.2788 4.2770
4.2337 4.1674 4.1444 4.1011 4.0514 3.9998
3.9603 3.9299 3.8645 3.7780 3.7227 3.6933
3.6417 3.5892 3.5497 3.5055 3.4493 3.3959
3.3471 3.2854 3.2109 3.1326 3.0452 2.9678
2.9144 2.8435 2.7607 2.6649 2.5747 2.4734
2.3427 2.2194 2.0877 1.9689 1.8170 1.6486
1.5280 1.3843 1.2407 1.1155 0.9811 0.8706
0.7252 0.5512 0.4333 0.3302 0.2243 0.0955
-0.0371 -0.1540 -0.2903 -0.4044 -0.5131 -0.6328
-0.7340 -0.8611 -0.9743 -1.0691 -1.1980 -1.3150
-1.4135 -1.5129 -1.6160 -1.7200 -1.8323 -1.9355
-2.0524 -2.1822 -2.2936 -2.3884 -2.4970 -2.6204
-2.7171 -2.8285 -2.9481 -3.0752 -3.1949 -3.2906
-3.4388 -3.5834 -3.6874 -3.8393 -3.9903 -4.1450
-4.3420 -4.5049 -4.6946 -4.8861 -5.0592 -5.2553
-5.4394 -5.6309 -5.8021 -5.9641 -6.1455 -6.3361
-6.5331 -6.7200 -6.9023 -7.0873 -7.2576 -7.4325
-7.6167 -7.8165 -7.9849 -8.1175 -8.2878 -8.4232
-8.5668 -8.6901 -8.8190 -8.9672 -8.9857 -9.0713
-9.1956 -9.2434 -9.2885 -9.3235 -9.3493 -9.3171
-9.2830 -9.2443 -9.1863 -9.1477 -9.0749 -8.9967
-8.9184 -8.8264 -8.7362 -8.6330 -8.5106 -8.3532
-8.2095 -8.0678 -7.9186 -7.7741 -7.6139 -7.4620
-7.2880 -7.1269 -6.9648 -6.7816 -6.6187 -6.4410
-6.2615 -6.0838 -5.8895 -5.6787 -5.4716 -5.2653
-5.0241 -4.7710 -4.5390 -4.2996 -4.0501 -3.8181
-3.5889 -3.3440 -3.1000 -2.8634 -2.6111 -2.3561
-2.0698 -1.7908 -1.5680 -1.2928 -0.9936 -0.7238
-0.4311 -0.1687 0.0827 0.3681 0.6636 0.9554
1.2298 1.5198 1.7932 2.0712 2.3658 2.6393
2.9191 3.1778 3.4089 3.6511 3.8877 4.0663
4.2117 4.3388 4.4704 4.5745 4.6352 4.6905
4.7291 4.7393 4.6877 4.6868 4.6315 4.5054
4.4354 4.3066 4.2127 4.1040 3.9447 3.8122
3.6953 3.5875 3.4154 3.2985 3.2073 3.0876
3.0057 2.8888 2.7829 2.7028 2.6448 2.5776
2.4616 2.3824 2.3272 2.2489 2.1781 2.1330
2.0473 1.9626 1.8927 1.8301 1.7721 1.6920
1.6128 1.5180 1.4452 1.3725 1.3035 1.2372
1.1911 1.1580 1.0715 1.0356 1.0558 1.0227
0.9822 0.9886 0.9803 0.9895 1.0208 1.0218
1.0540 1.1074 1.1295 1.1856 1.2667 1.3274
1.4001 1.4821 1.5861 1.6920 1.7850 1.9028
2.0262 2.1689 2.3282 2.4727 2.6716 2.9063
3.0960 3.2994 3.4808 3.6069 3.7588 3.8564
3.9061 3.9715 4.0608 4.1409 4.1621 4.1823
4.2099 4.2256 4.2284 4.2053 4.1648 4.1004
4.0083 3.8997 3.7901 3.6686 3.5572 3.4375
3.3077 3.1954 3.0767 2.9864 2.9017 2.8023
2.7084 2.6025 2.4976 2.3889 2.2711 2.1606
2.0796 1.9894 1.8890 1.8246 1.7242 1.6267
1.5383 1.4269 1.3468 1.2538 1.1535 1.0476
0.9436 0.8469 0.7346 0.6296 0.5182 0.3838
0.2420 0.1214 0.0008 -0.1152 -0.2247 -0.3637
-0.5110 -0.6473 -0.8158 -0.9649 -1.1012 -1.2706
-1.4308 -1.5845 -1.7318 -1.8920 -2.0669 -2.2510
-2.4333 -2.6414 -2.8402 -3.0170 -3.2554 -3.4322
-3.5961 -3.8051 -3.9570 -4.1503 -4.3418 -4.5250
-4.7202 -4.8813 -5.0608 -5.2274 -5.3849 -5.5220
-5.6426 -5.7513 -5.8618 -5.9667 -6.0293 -6.0882
-6.1159 -6.1306 -6.1554 -6.1665 -6.1656 -6.1425
-6.1214 -6.0974 -6.0450 -5.9842 -5.9087 -5.8093
-5.7016 -5.5929 -5.4631 -5.3324 -5.2191 -5.0884
-4.9282 -4.7450 -4.5618 -4.3933 -4.1982 -3.9735
-3.7921 -3.6099 -3.4128 -3.2508 -3.0768 -2.8780
-2.6993 -2.5198 -2.3265 -2.1617 -1.9886 -1.8146
-1.6535 -1.4777 -1.2908 -1.1177 -0.9382 -0.7393
-0.5598 -0.3766 -0.1924 -0.0065 0.1491 0.3029
0.4677 0.5919 0.7181 0.8387 0.9353 0.9924
1.0532 1.1075 1.1103 1.1139 1.1029 1.0762
1.0412 0.9722 0.9105 0.8111 0.6831 0.5735
0.3913 0.2044 0.0166 -0.2164 -0.4217 -0.6537
-0.8829 -1.1177 -1.4187 -1.6931 -1.9453 -2.2307
-2.4774 -2.7232 -3.0160 -3.2710 -3.5297 -3.7737
-3.9652 -4.1944 -4.4117 -4.5645 -4.7321 -4.9079
-5.0350 -5.1243 -5.1961 -5.2467 -5.2909 -5.3157
-5.3213 -5.3250 -5.2752 -5.2384 -5.1832 -5.0773
-4.9871 -4.8683 -4.7569 -4.5617 -4.3620 -4.2027
-3.9449 -3.7543 -3.5573 -3.2793 -3.0675 -2.8190
-2.5382 -2.3494 -2.0917 -1.7943 -1.5964 -1.3146
-1.0477 -0.8856 -0.6159 -0.3728 -0.1749 0.0967
0.2863 0.4502 0.6583 0.8397 1.0357 1.2530
1.4049 1.5651 1.7833 1.9288 2.1129 2.2979
2.4314 2.6165 2.7546 2.9000 3.0888 3.2342
3.3861 3.5288 3.6587 3.8004 3.9266 4.0693
4.1696 4.2506 4.3703 4.4476 4.5158 4.5949
4.6474 4.7008 4.7542 4.7800 4.7984 4.8058
4.8316 4.8214 4.7837 4.7874 4.7579 4.7128
4.6539 4.5784 4.4900 4.4025 4.3215 4.2322
4.1429 4.0223 3.9229 3.7784 3.5823 3.4147
3.2149 3.0455 2.9038 2.7463 2.6405 2.5392
2.4140 2.3155 2.2004 2.0724 1.9638 1.8193
1.6747 1.5633 1.4160 1.2834 1.2089 1.0910
0.9778 0.8995 0.7522 0.6252 0.5377 0.3858
0.2339 0.0774 -0.1039 -0.2605 -0.4437 -0.6425
-0.8276 -0.9942 -1.1415 -1.2998 -1.4508 -1.5825
-1.7022 -1.8200 -1.9655 -2.0999 -2.1984 -2.3135
-2.4110 -2.4994 -2.5832 -2.6375 -2.7020 -2.7425
-2.7793 -2.8198 -2.8401 -2.8529 -2.8428 -2.8474
-2.8548 -2.8539 -2.8612 -2.8677 -2.9008 -2.9119
-2.9137 -2.9201 -2.9045 -2.8999 -2.9054 -2.9073
-2.8870 -2.8686 -2.8999 -2.9201 -2.8713 -2.8272
-2.8272 -2.8446 -2.8446 -2.8373 -2.8612 -2.8861
-2.8612 -2.8465 -2.8557 -2.8373 -2.8262 -2.7747
-2.7056 -2.6476 -2.5602 -2.4847 -2.3779 -2.2407
-2.1026 -1.9470 -1.8034 -1.6708 -1.5171 -1.3753
-1.2289 -1.0604 -0.9205 -0.7898 -0.6765 -0.5753
-0.4574 -0.3635 -0.2981 -0.2595 -0.2512 -0.2641
-0.2853 -0.2880 -0.3064 -0.3322 -0.3764 -0.4335
-0.4666 -0.5458 -0.6360 -0.7179 -0.8303 -0.9748
-1.1276 -1.2482 -1.4103 -1.5843 -1.7288 -1.9046
-2.0667 -2.2444 -2.4211 -2.5601 -2.7084 -2.8372
-2.9569 -3.0858 -3.1935 -3.2709 -3.3454 -3.4375
-3.5167 -3.5682 -3.5949 -3.6502 -3.7045 -3.6870
-3.6824 -3.6722 -3.6262 -3.5922 -3.5424 -3.4679
-3.3850 -3.3233 -3.2432 -3.1521 -3.0701 -2.9680
-2.8593 -2.7102 -2.5712 -2.4782 -2.3438 -2.1909
-2.0399 -1.8752 -1.7269 -1.5750 -1.4277 -1.2804
-1.0954 -0.9471 -0.7870 -0.5890 -0.4067 -0.2318
-0.0762 0.1079 0.2690 0.4311 0.6124 0.7312
0.8905 1.0838 1.2357 1.3738 1.5533 1.7356
1.8903 2.0413 2.2217 2.4473 2.5909 2.7907
3.0457 3.1681 3.3596 3.5971 3.7785 3.9507
4.1311 4.2987 4.4340 4.6034 4.7507 4.8492
4.9698 5.0987 5.2046 5.3003 5.4264 5.5111
5.6032 5.7800 5.8638 5.9254 6.0359 6.1593
6.2744 6.3627 6.4990 6.6049 6.7181 6.8645
6.9777 7.1214 7.2733 7.4132 7.5209 7.6259
7.7787 7.8800 7.9702 8.0650 8.1267 8.2188
8.2998 8.3605 8.4121 8.4535 8.5060 8.5290
8.5355 8.5548 8.5585 8.5272 8.5014 8.4747
8.4324 8.3974 8.3403 8.2740 8.2142 8.1424
8.0770 8.0015 7.8938 7.8072 7.7041 7.5633
7.4316 7.2843 7.1278 6.9676 6.8259 6.6887
6.5414 6.3987 6.2633 6.1225 5.9641 5.8307
5.7064 5.5940 5.5020 5.4173 5.3538 5.3068
5.2663 5.2405 5.2055 5.1733 5.1687 5.1614
5.1457 5.1218 5.0951 5.0601 5.0444 5.0362
5.0085 4.9938 4.9643 4.9321 4.8889 4.8465
4.7959 4.7241 4.6863 4.6007 4.4967 4.4129
4.2822 4.1413 4.0060 3.8587 3.6920 3.5236
3.3652 3.1995 3.0494 2.8782 2.6941 2.5284
2.3415 2.1638 2.0128 1.8305 1.6584 1.5378
1.3997 1.2993 1.2054 1.0949 1.0204 0.9357
0.8565 0.7819 0.7451 0.7046 0.6678 0.6613
0.6632 0.6715 0.6659 0.6899 0.6917 0.7101
0.7626 0.7856 0.8077 0.8464 0.8989 0.9311
0.9937 1.0323 1.0683 1.1097 1.1281 1.1833
1.1640 1.1861 1.2579 1.2634 1.2947 1.3362
1.3343 1.3684 1.4107 1.3675 1.4144 1.4476
1.4071 1.4236 1.3859 1.3758 1.3712 1.2865
1.2018 1.1254 1.0287 0.9062 0.7810 0.6660
0.5398 0.3916 0.2572 0.1044 -0.0300 -0.1571
-0.3357 -0.4719 -0.6386 -0.8199 -0.9534 -1.1293
-1.3051 -1.4764 -1.6467 -1.8105 -1.9450 -2.0969
-2.2561 -2.3832 -2.5461 -2.6769 -2.8057 -2.9484
-3.0911 -3.2458 -3.3784 -3.5248 -3.6583 -3.7733
-3.9142 -4.0127 -4.0845 -4.2116 -4.2880 -4.3552
-4.4546 -4.5190 -4.5761 -4.6249 -4.6728 -4.7225
-4.7833 -4.7925 -4.7961 -4.8422 -4.8413 -4.8100
-4.7823 -4.7427 -4.6940 -4.6424 -4.5586 -4.5200
-4.4675 -4.3340 -4.2723 -4.2152 -4.1388 -4.0790
-3.9538 -3.8598 -3.7834 -3.6868 -3.6048 -3.5118
-3.4446 -3.3507 -3.2403 -3.1510 -3.0672 -2.9723
-2.8407 -2.7072 -2.5719 -2.4467 -2.2819 -2.0710
-1.9293 -1.7764 -1.5702 -1.4441 -1.3097 -1.1900
-1.1412 -1.0197 -0.9166 -0.8576 -0.7527 -0.6523
-0.5446 -0.3973 -0.2786 -0.1856 -0.0355 0.0851
0.1744 0.3107 0.4055 0.5049 0.6301 0.7222
0.8621 0.9993 1.0978 1.2212 1.3639 1.4900
1.6115 1.7413 1.8426 1.9669 2.0866 2.1842
2.2974 2.4005 2.5092 2.5874 2.6611 2.7384
2.7798 2.8480 2.9170 2.9658 3.0284 3.0560
3.0827 3.1076 3.0947 3.1057 3.1140 3.1370
3.1555 3.1315 3.1536 3.1748 3.1610 3.1868
3.1950 3.1702 3.1923 3.1969 3.2153 3.2475
3.2033 3.1941 3.2429 3.2531 3.2503 3.2798
3.2438 3.2245 3.2466 3.1886 3.1941 3.2162
3.1638 3.1288 3.0947 3.0192 2.9815 2.9170
2.7992 2.7163 2.5865 2.5046 2.3729 2.1870
2.0903 1.9163 1.7340 1.5573 1.3694 1.2304
1.1172 0.9754 0.8484 0.7830 0.6661 0.5271
0.3890 0.2757 0.1855 0.0879 -0.0502 -0.1689
-0.2122 -0.3374 -0.4157 -0.4617 -0.5427 -0.5841
-0.6891 -0.7719 -0.8005 -0.8594 -0.8925 -0.9192
-0.9809 -1.0288 -1.1218 -1.2083 -1.2359 -1.2912
-1.3842 -1.4449 -1.4808 -1.5609 -1.6143 -1.6705
-1.7414 -1.8040 -1.8969 -1.9522 -1.9918 -2.0452
-2.1050 -2.1427 -2.1667 -2.2274 -2.2514 -2.2680
-2.3149 -2.3480 -2.3839 -2.4199 -2.4484 -2.4521
-2.4466 -2.4539 -2.4604 -2.4613 -2.4585 -2.4613
-2.4926 -2.5322 -2.5358 -2.5395 -2.5616 -2.5773
-2.5690 -2.5736 -2.5929 -2.6233 -2.6666 -2.6675
-2.6877 -2.7375 -2.7273 -2.7246 -2.7568 -2.7513
-2.7467 -2.7540 -2.7660 -2.8028 -2.8093 -2.8102
-2.8525 -2.8728 -2.8811 -2.9124 -2.9299 -2.9566
-2.9934 -3.0164 -3.0541 -3.0928 -3.1471 -3.1922
-3.2392 -3.2944 -3.3285 -3.3911 -3.4371 -3.4970
-3.5734 -3.6268 -3.6912 -3.7465 -3.8091 -3.8615
-3.9030 -3.9453 -4.0098 -4.0530 -4.0585 -4.0935
-4.1257 -4.1580 -4.2012 -4.2252 -4.2371 -4.2694
-4.3007 -4.3228 -4.3614 -4.3863 -4.4185 -4.4710
-4.5032 -4.5428 -4.5925 -4.6376 -4.6928 -4.7481
-4.8079 -4.8751 -4.9359 -5.0003 -5.0694 -5.1320
-5.2029 -5.2682 -5.3189 -5.3916 -5.4432 -5.4643
-5.5094 -5.5656 -5.6033 -5.6006 -5.5951 -5.6006
-5.5794 -5.5665 -5.5407 -5.5085 -5.4726 -5.3999
-5.3382 -5.2756 -5.2102 -5.1375 -5.0390 -4.9478
-4.8401 -4.7241 -4.6229 -4.5188 -4.4139 -4.3062
-4.2003 -4.1091 -4.0327 -3.9232 -3.8283 -3.7611
-3.6847 -3.6240 -3.5208 -3.4407 -3.3864 -3.2990
-3.2161 -3.1452 -3.0762 -2.9786 -2.9252 -2.8672
-2.8064 -2.7714 -2.7098 -2.6711 -2.6324 -2.6039
-2.5799 -2.5468 -2.5183 -2.4943 -2.4796 -2.4621
-2.4446 -2.4299 -2.4197 -2.4087 -2.4023 -2.3848
-2.3774 -2.3636 -2.3350 -2.3231 -2.3065 -2.2991
-2.2669 -2.2467 -2.2328 -2.1785 -2.1574 -2.1353
-2.1159 -2.0938 -2.0414 -2.0027 -1.9797 -1.9263
-1.8591 -1.8222 -1.7578 -1.7053 -1.6593 -1.5976
-1.5332 -1.4604 -1.4024 -1.3417 -1.2837 -1.1962
-1.1262 -1.0572 -0.9587 -0.8869 -0.7847 -0.6926
-0.6134 -0.5131 -0.4192 -0.3299 -0.2507 -0.1770
-0.0923 -0.0095 0.0568 0.1323 0.1986 0.2741
0.3431 0.3846 0.4508 0.5199 0.5714 0.6479
0.7105 0.7528 0.8320 0.8927 0.9415 0.9913
1.0345 1.1165 1.1487 1.1800 1.2610 1.3126
1.3614 1.4276 1.5004 1.5510 1.6109 1.6873
1.7351 1.8208 1.9110 1.9708 2.0666 2.1310
2.2443 2.3759 2.4413 2.5554 2.6392 2.7046
2.8068 2.9320 3.0259 3.0866 3.1852 3.2625
3.3472 3.4208 3.4927 3.5737 3.6142 3.6574
3.6961 3.7412 3.7808 3.8103 3.8416 3.8407
3.8379 3.8315 3.8222 3.8269 3.8094 3.7882
3.7735 3.7403 3.7072 3.6657 3.6271 3.5838
3.5120 3.4752 3.4199 3.3362 3.3003 3.2505
3.1916 3.1345 3.0581 3.0001 2.9265 2.8584
2.8114 2.7239 2.6356 2.5499 2.4616 2.3732
2.2885 2.2314 2.1633 2.0933 2.0289 1.9589
1.9046 1.8355 1.7527 1.6763 1.5814 1.4885
1.4249 1.3402 1.2694 1.1985 1.0760 1.0033
0.9398 0.8818 0.8321 0.7363 0.6673 0.6019
0.5347 0.4592 0.3874 0.3257 0.2189 0.1204
0.0201 -0.0656 -0.1613 -0.2663 -0.3390 -0.4393
-0.5075 -0.5747 -0.6492 -0.6833 -0.7367 -0.8021
-0.8757 -0.9503 -1.0414 -1.1409 -1.2338 -1.3222
-1.4124 -1.5432 -1.6546 -1.7724 -1.8985 -2.0237
-2.1618 -2.2815 -2.4168 -2.5559 -2.6801 -2.7787
-2.8900 -3.0107 -3.1395 -3.2629 -3.3651 -3.4783
-3.5814 -3.7113 -3.8134 -3.8945 -4.0390 -4.1062
-4.1504 -4.2949 -4.3585 -4.4146 -4.5573 -4.6070
-4.6623 -4.7893 -4.8565 -4.9348 -5.0222 -5.0756
-5.1299 -5.1797 -5.2275 -5.2367 -5.2561 -5.2901
-5.2929 -5.2837 -5.2367 -5.1990 -5.1870 -5.1336
-5.0692 -5.0204 -4.9219 -4.7957 -4.6880 -4.5601
-4.4413 -4.3317 -4.1863 -4.0712 -3.9718 -3.8456
-3.7296 -3.6164 -3.4903 -3.3807 -3.2500 -3.1146
-3.0152 -2.8725 -2.7344 -2.6065 -2.4776 -2.3745
-2.2631 -2.1369 -2.0071 -1.9003 -1.7530 -1.5744
-1.4170 -1.2393 -1.0579 -0.8775 -0.6749 -0.4752
-0.2763 -0.0728 0.1426 0.3378 0.5127 0.7290
0.9334 1.1083 1.3026 1.5033 1.7040 1.9019
2.0943 2.2821 2.4681 2.6292 2.7857 2.9404
3.0969 3.2728 3.4072 3.5204 3.6622 3.7607
3.8482 3.9365 3.9936 4.0884 4.1750 4.2210
4.2542 4.3536 4.4042 4.4116 4.5184 4.5239
4.5202 4.5469 4.5580 4.5939 4.5911 4.6040
4.6059 4.5939 4.5617 4.5212 4.5009 4.4742
4.4429 4.4079 4.3932 4.3573 4.3140 4.2717
4.1980 4.1271 4.0489 3.9633 3.8776 3.8040
3.7211 3.6245 3.5444 3.4413 3.3326 3.2323
3.1310 3.0233 2.8898 2.7609 2.6403 2.5234
2.3973 2.2555 2.1542 2.0484 1.9351 1.8449
1.7317 1.6479 1.5770 1.4941 1.4186 1.3349
1.2566 1.1682 1.1084 1.0274 0.9740 0.9583
0.8847 0.8313 0.7705 0.7236 0.6886 0.6380
0.6140 0.5707 0.5302 0.4971 0.4695 0.4428
0.4152 0.4023 0.4023 0.4032 0.3931 0.3912
0.3968 0.4106 0.4106 0.4290 0.4824 0.5100
0.5523 0.6030 0.6545 0.7098 0.7365 0.7751
0.8157 0.8571 0.8829 0.9114 0.9630 0.9731
0.9851 0.9924 0.9860 0.9869 0.9805 0.9593
0.9068 0.8672 0.8193 0.7613 0.6923 0.5966
0.5146 0.4170 0.3010 0.1629 0.0230 -0.1206
-0.2882 -0.4447 -0.6251 -0.8175 -1.0044 -1.1849
-1.3626 -1.5651 -1.7704 -1.9674 -2.1773 -2.3835
-2.5806 -2.7941 -2.9801 -3.1734 -3.3576 -3.5187
-3.7028 -3.8262 -3.9523 -4.0931 -4.2027 -4.2865
-4.3141 -4.3564 -4.3611 -4.3362 -4.3159 -4.2561
-4.1594 -4.0361 -3.8906 -3.7203 -3.5638 -3.4146
-3.2388 -3.0593 -2.9037 -2.7637 -2.6109 -2.4535
-2.3080 -2.1580 -2.0116 -1.8587 -1.6949 -1.5494
-1.3929 -1.2198 -1.0596 -0.8948 -0.7264 -0.5791
-0.4391 -0.3204 -0.1979 -0.0865 0.0313 0.1611
0.2633 0.4152 0.5681 0.6988 0.8645 1.0017
1.1481 1.3184 1.4510 1.5817 1.7391 1.8947
2.0236 2.1921 2.3559 2.4959 2.6773 2.7923
2.9157 3.0501 3.1376 3.2444 3.3079 3.4101
3.4948 3.5279 3.6366 3.6780 3.7130 3.7857
3.8078 3.8299 3.8759 3.9192 3.9220 3.9643
4.0048 4.0278 4.0628 4.0849 4.1208 4.1402
4.1650 4.2101 4.2534 4.3040 4.3666 4.4090
4.4440 4.5149 4.5609 4.5950 4.6447 4.6843
4.7275 4.7478 4.7671 4.7680 4.7644 4.7809
4.7763 4.7588 4.7165 4.6714 4.6226 4.5701
4.5333 4.5075 4.4753 4.4532 4.4504 4.4394
4.4339 4.4283 4.4173 4.3869 4.3593 4.3317
4.2737 4.2323 4.2046 4.1411 4.1117 4.1227
4.1015 4.1080 4.1218 4.0988 4.0822 4.0868
4.0647 4.0306 4.0251 3.9865 3.9607 3.9524
3.9192 3.9008 3.8916 3.9054 3.8990 3.8659
3.8566 3.8419 3.8005 3.7379 3.6744 3.6154
3.5344 3.4553 3.3853 3.2776 3.1920 3.1211
3.0115 2.9204 2.8228 2.7049 2.5899 2.4656
2.3302 2.1866 2.0393 1.8865 1.7447 1.6057
1.4501 1.3065 1.1684 1.0220 0.8922 0.7679
0.6501 0.5387 0.4301 0.3113 0.1889 0.0894
-0.0284 -0.1509 -0.2438 -0.3249 -0.4123 -0.4933
-0.5854 -0.6922 -0.7842 -0.8947 -1.0052 -1.1111
-1.2455 -1.3698 -1.4996 -1.6469 -1.7868 -1.9498
-2.1072 -2.2444 -2.3981 -2.5537 -2.7056 -2.8603
-2.9836 -3.1070 -3.2423 -3.3390 -3.4421 -3.5646
-3.6667 -3.7487 -3.8233 -3.8905 -3.9393 -3.9982
-4.0203 -4.0129 -4.0111 -3.9705 -3.9494 -3.9079
-3.8242 -3.7358 -3.6235 -3.5047 -3.3620 -3.1770
-2.9928 -2.7977 -2.5684 -2.3548 -2.1329 -1.8945
-1.6643 -1.4397 -1.2390 -1.0328 -0.8201 -0.6176
-0.3966 -0.1830 0.0075 0.2239 0.4540 0.6400
0.8389 1.0561 1.2430 1.4244 1.5975 1.7457
1.8930 2.0366 2.1443 2.2401 2.3496 2.4242
2.4638 2.5034 2.5154 2.5089 2.4877 2.4620
2.4215 2.3589 2.2999 2.2097 2.1232 2.0339
1.9022 1.8240 1.7430 1.6039 1.5192 1.4327
1.3351 1.2698 1.1694 1.0976 1.0341 0.9466
0.8776 0.8058 0.7376 0.6741 0.6133 0.5636
0.5360 0.4927 0.4596 0.4753 0.4642 0.4366
0.4320 0.4394 0.4486 0.4504 0.4615 0.4918
0.5093 0.5066 0.5167 0.5369 0.5388 0.5323
0.5434 0.5636 0.5701 0.5811 0.5876 0.5922
0.6060 0.6088 0.6410 0.6419 0.6336 0.6612
0.6520 0.6751 0.6870 0.6594 0.6502 0.6309
0.6180 0.5950 0.5489 0.5001 0.4477 0.3869
0.3289 0.2866 0.2304 0.1724 0.1291 0.0647
-0.0025 -0.0513 -0.0909 -0.1259 -0.1498 -0.1636
-0.1968 -0.2262 -0.2502 -0.2787 -0.2925 -0.3155
-0.3303 -0.3238 -0.3146 -0.3054 -0.3109 -0.3183
-0.3192 -0.3542 -0.3708 -0.3597 -0.3864 -0.4232
-0.4462 -0.4619 -0.4932 -0.5365 -0.5705 -0.5899
-0.6221 -0.6644 -0.6690 -0.6994 -0.7583 -0.7758
-0.8347 -0.9250 -0.9673 -1.0336 -1.0971 -1.1570
-1.2389 -1.2978 -1.3678 -1.4322 -1.4718 -1.5307
-1.6062 -1.6688 -1.7314 -1.7765 -1.8115 -1.8576
-1.8732 -1.8962 -1.9377 -1.9745 -2.0003 -2.0131
-2.0380 -2.0500 -2.0527 -2.0794 -2.0942 -2.0932
-2.1043 -2.0859 -2.0785 -2.0757 -2.0647 -2.0794
-2.0564 -2.0325 -2.0251 -2.0002 -1.9717 -1.9588
-1.9570 -1.9395 -1.9275 -1.9100 -1.8787 -1.8640
-1.8714 -1.8419 -1.7986 -1.7959 -1.7655 -1.7397
-1.7222 -1.6872 -1.6780 -1.6725 -1.6495 -1.6274
-1.6080 -1.5905 -1.5721 -1.5270 -1.4893 -1.4663
-1.4294 -1.3926 -1.3447 -1.2877 -1.2306 -1.1726
-1.1008 -1.0096 -0.9277 -0.8301 -0.7270 -0.6276
-0.5208 -0.4241 -0.3366 -0.2519 -0.1663 -0.1129
-0.0549 0.0215 0.0795 0.1467 0.2222 0.2830
0.3502 0.4036 0.4533 0.4975 0.5012 0.5371
0.5803 0.6034 0.6282 0.6439 0.6687 0.6973
0.7424 0.7783 0.8087 0.8473 0.8805 0.9228
0.9624 0.9596 0.9431 0.9532 0.9569 0.9440
0.9201 0.9136 0.9145 0.8989 0.8851 0.8593
0.8326 0.8188 0.7857 0.7415 0.7129 0.6660
0.6209 0.5813 0.5095 0.4552 0.4183 0.3566
0.3023 0.2581 0.2130 0.1587 0.0924 0.0510
-0.0015 -0.0650 -0.1129 -0.1663 -0.2307 -0.2869
-0.3320 -0.3992 -0.4526 -0.5069 -0.5750 -0.6413
-0.6938 -0.7435 -0.8171 -0.8834 -0.9488 -1.0197
-1.0989 -1.1900 -1.2747 -1.3658 -1.4671 -1.5583
-1.6448 -1.7369 -1.8363 -1.9228 -2.0094 -2.1162
-2.1953 -2.2809 -2.3822 -2.4540 -2.5212 -2.6133
-2.6925 -2.7670 -2.8637 -2.9374 -2.9935 -3.0515
-3.1132 -3.1786 -3.2384 -3.2596 -3.2992 -3.3378
-3.3636 -3.3949 -3.3793 -3.3949 -3.3921 -3.3848
-3.3995 -3.3839 -3.4032 -3.3986 -3.3700 -3.3756
-3.3746 -3.3645 -3.3415 -3.3304 -3.3498 -3.3516
-3.3452 -3.3314 -3.3120 -3.2899 -3.2632 -3.2430
-3.1795 -3.1343 -3.1159 -3.0736 -3.0285 -2.9677
-2.9198 -2.8591 -2.7854 -2.7127 -2.6234 -2.5341
-2.4374 -2.3490 -2.2459 -2.1327 -2.0213 -1.8878
-1.7727 -1.6447 -1.5030 -1.3750 -1.2185 -1.0951
-0.9561 -0.8051 -0.6661 -0.4921 -0.3457 -0.1864
-0.0299 0.1339 0.3070 0.4497 0.6173 0.7775
0.9248 1.0896 1.2580 1.4238 1.5757 1.7377
1.9218 2.0894 2.2809 2.4586 2.6243 2.8158
2.9925 3.1969 3.3838 3.5698 3.7870 3.9610
4.1387 4.3413 4.5180 4.6837 4.8458 5.0050
5.1634 5.2950 5.4064 5.5197 5.6283 5.6955
5.7692 5.8401 5.8852 5.9607 6.0297 6.0748
6.0988 6.1466 6.1964 6.2000 6.2313 6.2626
6.2599 6.2645 6.2507 6.2148 6.1982 6.1577
6.0933 6.0307 5.9607 5.8613 5.7278 5.5657
5.3595 5.1386 4.8863 4.6184 4.3772 4.1664
4.0108 3.8727 3.7723 3.7005 3.5873 3.4934
3.3894 3.2310 3.0837 2.9014 2.7016 2.5359
2.3656 2.2266 2.0830 1.9495 1.8611 1.7497
1.6420 1.5444 1.4256 1.2986 1.1550 0.9699
0.7923 0.6044 0.3724 0.1497 -0.0823 -0.2950
-0.4948 -0.7139 -0.9256 -1.1448 -1.3519 -1.5673
-1.8002 -2.0350 -2.2845 -2.5552 -2.8369 -3.1149
-3.4058 -3.6958 -3.9886 -4.2850 -4.5640 -4.8411
-5.1173 -5.3990 -5.6770 -5.9486 -6.2138 -6.4734
-6.7247 -6.9586 -7.1915 -7.3977 -7.6104 -7.8175
-8.0007 -8.1894 -8.3533 -8.5015 -8.6240 -8.7593
-8.8882 -9.0088 -9.1220 -9.1847 -9.2647 -9.3338
-9.3669 -9.3955 -9.4074 -9.4038 -9.3964 -9.3568
-9.3080 -9.2620 -9.1819 -9.0953 -8.9876 -8.8818
-8.7630 -8.6028 -8.4619 -8.3119 -8.1185 -7.9390
-7.7623 -7.5542 -7.3562 -7.1556 -6.9512 -6.7422
-6.5185 -6.3067 -6.0977 -5.8795 -5.6687 -5.4579
-5.2471 -5.0491 -4.8447 -4.6440 -4.4479 -4.2472
-4.0438 -3.8468 -3.6608 -3.4509 -3.2594 -3.0753
-2.8589 -2.6720 -2.4667 -2.2624 -2.0837 -1.8692
-1.6603 -1.4467 -1.2220 -1.0020 -0.7801 -0.5509
-0.3290 -0.1016 0.1332 0.3320 0.5631 0.7914
1.0004 1.2278 1.4414 1.6688 1.8971 2.1162
2.3455 2.5867 2.8187 3.0387 3.2468 3.4475
3.6362 3.8360 4.0090 4.1702 4.3607 4.4712
4.5872 4.7170 4.7842 4.8671 4.9260 4.9665
4.9849 4.9785 4.9490 4.8919 4.8303 4.7437
4.6461 4.5108 4.3571 4.2061 4.0229 3.8286
3.6371 3.4005 3.1676 2.9559 2.6990 2.4725
2.2635 2.0444 1.8327 1.6007 1.3963 1.2168
1.0207 0.8458 0.6810 0.4968 0.3376 0.1820
0.0402 -0.0841 -0.2019 -0.2894 -0.3989 -0.4735
-0.5241 -0.5932 -0.6272 -0.6530 -0.6806 -0.6963
-0.7092 -0.7129 -0.6760 -0.6493 -0.6337 -0.5840
-0.5223 -0.4523 -0.3952 -0.3289 -0.2516 -0.1936
-0.1172 -0.0574 0.0098 0.0863 0.1341 0.2050
0.2759 0.3413 0.4103 0.4656 0.5282 0.5926
0.6552 0.7261 0.8007 0.8596 0.9360 1.0124
1.0870 1.1800 1.2454 1.3126 1.3669 1.4230
1.4884 1.5271 1.5768 1.6173 1.6615 1.7287
1.7729 1.8070 1.8392 1.8778 1.9451 2.0141
2.0693 2.1338 2.1835 2.2452 2.3142 2.3676
2.4321 2.4827 2.5333 2.5775 2.6245 2.6687
2.6834 2.7138 2.7497 2.7515 2.7543 2.7479
2.7313 2.7101 2.6825 2.6512 2.5720 2.5186
2.4560 2.3640 2.2802 2.1467 2.0371 1.9239
1.7867 1.6514 1.4774 1.3393 1.1957 1.0116
0.8477 0.6415 0.4325 0.2622 0.0541 -0.1641
-0.3786 -0.5986 -0.8058 -1.0249 -1.2431 -1.4696
-1.6868 -1.8792 -2.1020 -2.3239 -2.5071 -2.7069
-2.9177 -3.1110 -3.2896 -3.4544 -3.6156 -3.7454
-3.8531 -3.9369 -4.0225 -4.1201 -4.1550 -4.1744
-4.2075 -4.2112 -4.2011 -4.1771 -4.1514 -4.0915
-4.0142 -3.9553 -3.8669 -3.7638 -3.6386 -3.5198
-3.3964 -3.2372 -3.0843 -2.9499 -2.8035 -2.6323
-2.4675 -2.2898 -2.1029 -1.9031 -1.6859 -1.4732
-1.2504 -1.0129 -0.7689 -0.5305 -0.2709 -0.0103
0.2419 0.5080 0.7759 1.0447 1.2915 1.5336
1.7923 2.0344 2.2710 2.5150 2.7406 2.9578
3.1668 3.3822 3.6087 3.7928 3.9558 4.1326
4.3010 4.4456 4.5726 4.6942 4.8157 4.9234
5.0035 5.0919 5.1812 5.2475 5.3276 5.4003
5.4546 5.5135 5.5706 5.6240 5.6802 5.7382
5.7639 5.8063 5.8652 5.9011 5.9481 6.0006
6.0291 6.0484 6.0899 6.1074 6.1193 6.1331
6.1304 6.1488 6.1469 6.1396 6.1451 6.1331
6.1138 6.0779 6.0245 5.9536 5.8984 5.8459
5.7409 5.6332 5.5347 5.4114 5.2908 5.1471
4.9612 4.7724 4.5874 4.4106 4.2228 4.0010
3.8159 3.6437 3.4467 3.2727 3.0812 2.9146
2.7498 2.5473 2.3852 2.2030 2.0124 1.8273
1.6377 1.4628 1.2740 1.1166 0.9712 0.8018
0.6526 0.5127 0.3801 0.2623 0.1352 0.0386
-0.0618 -0.2017 -0.3223 -0.4264 -0.5341 -0.6307
-0.7412 -0.8673 -0.9668 -1.0607 -1.1555 -1.2411
-1.3249 -1.4096 -1.5173 -1.6048 -1.6821 -1.7788
-1.8561 -1.9574 -2.0550 -2.1470 -2.2603 -2.3330
-2.4177 -2.5180 -2.5935 -2.6580 -2.7224 -2.7869
-2.8338 -2.8909 -2.9553 -3.0124 -3.0584 -3.1036
-3.1450 -3.1680 -3.2076 -3.2324 -3.2370 -3.2610
-3.2490 -3.2435 -3.2499 -3.2380 -3.2324 -3.1993
-3.1919 -3.1781 -3.1441 -3.1256 -3.0980 -3.0842
-3.0557 -3.0382 -3.0391 -3.0326 -3.0198 -3.0023
-3.0059 -3.0271 -3.0354 -3.0483 -3.0971 -3.1385
-3.1956 -3.2646 -3.3272 -3.4037 -3.4653 -3.5436
-3.6163 -3.6835 -3.7876 -3.8759 -3.9698 -4.0693
-4.1411 -4.2129 -4.2930 -4.3786 -4.4541 -4.5204
-4.5719 -4.6078 -4.6695 -4.7109 -4.7238 -4.7809
-4.8150 -4.8150 -4.8242 -4.8131 -4.8260 -4.8260
-4.7910 -4.7874 -4.7726 -4.7376 -4.7054 -4.6640
-4.6097 -4.5553 -4.4909 -4.4200 -4.3639 -4.3197
-4.2709 -4.2046 -4.1549 -4.1162 -4.0656 -4.0379
-4.0094 -3.9717 -3.9468 -3.9210 -3.9127 -3.9100
-3.8971 -3.8916 -3.8943 -3.8851 -3.8741 -3.8870
-3.8842 -3.8685 -3.8695 -3.8556 -3.8566 -3.8851
-3.8952 -3.9182 -3.9394 -3.9403 -3.9818 -4.0204
-4.0361 -4.0554 -4.0821 -4.0876 -4.0720 -4.0858
-4.0628 -4.0609 -4.0692 -4.0260 -4.0002 -3.9615
-3.9412 -3.9201 -3.8897 -3.8501 -3.8206 -3.8142
-3.7654 -3.7102 -3.6623 -3.6236 -3.5896 -3.5325
-3.4726 -3.4220 -3.3797 -3.3299 -3.2710 -3.2231
-3.1780 -3.1191 -3.0629 -3.0114 -2.9654 -2.9129
-2.8512 -2.7904 -2.7232 -2.6588 -2.5962 -2.5207
-2.4369 -2.3706 -2.2859 -2.1994 -2.1349 -2.0327
-1.9333 -1.8440 -1.7262 -1.5964 -1.4785 -1.3404
-1.1940 -1.0661 -0.9022 -0.7613 -0.6269 -0.4345
-0.2697 -0.0976 0.0774 0.2468 0.4410 0.6224
0.8240 1.0072 1.1821 1.3810 1.5605 1.7483
1.9352 2.0945 2.2639 2.4545 2.6266 2.7960
2.9406 3.0925 3.2683 3.4027 3.5546 3.6973
3.8409 3.9947 4.0886 4.2166 4.3574 4.4679
4.5996 4.7156 4.8297 4.9476 5.0562 5.1676
5.2845 5.4051 5.5137 5.6261 5.7494 5.8627
5.9511 6.0422 6.1536 6.2687 6.3442 6.4224
6.5366 6.6194 6.6802 6.7603 6.8358 6.8975
6.9527 6.9877 7.0411 7.0936 7.1129 7.1497
7.1691 7.1746 7.1921 7.1958 7.2123 7.2179
7.1921 7.2041 7.2142 7.1976 7.1967 7.1838
7.1654 7.1378 7.1258 7.1129 7.0779 7.0687
7.0540 7.0337 7.0043 6.9831 6.9988 6.9804
6.9675 6.9583 6.9518 6.9804 6.9619 6.9352
6.9362 6.9224 6.9095 6.8809 6.8561 6.8275
6.7723 6.7373 6.6775 6.5863 6.4943 6.3792
6.2696 6.1601 6.0625 6.0036 5.9603 5.9124
5.8572 5.8369 5.8167 5.7559 5.6979 5.6280
5.5258 5.4217 5.3159 5.1971 5.0931 4.9734
4.8445 4.7350 4.6291 4.5250 4.4035 4.3013
4.2019 4.0933 3.9819 3.8576 3.7444 3.6035
3.4718 3.3669 3.2352 3.1008 2.9747 2.8605
2.7307 2.5982 2.4822 2.3689 2.2953 2.1894
2.0522 1.9445 1.8285 1.7319 1.6131 1.4824
1.3599 1.2292 1.1012 0.9502 0.8121 0.6713
0.5360 0.3969 0.2275 0.0821 -0.0440 -0.1803
-0.3340 -0.4859 -0.6369 -0.7953 -0.9592 -1.1368
-1.3025 -1.4692 -1.6570 -1.8245 -2.0078 -2.1974
-2.3640 -2.5408 -2.7074 -2.9045 -3.0840 -3.2304
-3.4163 -3.5894 -3.7551 -3.9383 -4.1261 -4.3001
-4.4548 -4.6279 -4.7770 -4.9225 -5.1112 -5.2484
-5.3828 -5.5319 -5.6654 -5.8017 -5.9085 -6.0116
-6.1018 -6.1874 -6.2565 -6.3043 -6.3449 -6.3743
-6.3973 -6.3909 -6.3881 -6.3780 -6.3494 -6.3264
-6.2822 -6.2417 -6.2114 -6.1635 -6.1055 -6.0475
-5.9895 -5.9094 -5.8366 -5.7556 -5.6461 -5.5651
-5.4500 -5.3404 -5.2419 -5.1195 -5.0136 -4.8773
-4.7623 -4.6186 -4.4796 -4.3691 -4.1951 -4.0570
-3.9309 -3.7597 -3.5746 -3.4144 -3.2708 -3.0996
-2.9265 -2.7599 -2.6080 -2.4229 -2.2351 -2.0841
-1.9110 -1.7380 -1.5686 -1.4102 -1.2638 -1.0742
-0.9048 -0.7832 -0.6028 -0.4583 -0.3312 -0.1489
-0.0071 0.1171 0.2497 0.4016 0.5093 0.6134
0.7597 0.8721 0.9743 1.0884 1.2109 1.3094
1.4106 1.5331 1.6251 1.7209 1.8286 1.9262
2.0091 2.1039 2.2153 2.2871 2.3884 2.5136
2.5955 2.7023 2.8155 2.9196 3.0291 3.1295
3.2556 3.3624 3.4618 3.5815 3.6773 3.7804
3.8826 3.9783 4.0925 4.1799 4.2711 4.3770
4.4580 4.5362 4.6080 4.6891 4.7627 4.8207
4.8787 4.9257 4.9754 5.0039 5.0398 5.0739
5.0868 5.0969 5.0859 5.0822 5.0601 5.0251
4.9818 4.9257 4.8861 4.7922 4.7056 4.6458
4.5040 4.3880 4.2895 4.1459 4.0483 3.9360
3.8145 3.7150 3.6064 3.5180 3.4094 3.2869
3.1654 3.0236 2.9003 2.7714 2.6453 2.5265
2.3930 2.2752 2.1546 2.0395 1.9014 1.7836
1.6906 1.5589 1.4530 1.3288 1.1934 1.0719
0.9412 0.8215 0.6862 0.5573 0.4339 0.3170
0.2001 0.0804 -0.0365 -0.1452 -0.2400 -0.3459
-0.4619 -0.5723 -0.6635 -0.7712 -0.8854 -0.9866
-1.0971 -1.2048 -1.3024 -1.3908 -1.4948 -1.6255
-1.7388 -1.8410 -1.9487 -2.0610 -2.1862 -2.3068
-2.4256 -2.5462 -2.6760 -2.8214 -2.9485 -3.0774
-3.2228 -3.3517 -3.4935 -3.6334 -3.7467 -3.8783
-4.0118 -4.1416 -4.2604 -4.3727 -4.4942 -4.6075
-4.6931 -4.7907 -4.9186 -5.0098 -5.0880 -5.1608
-5.2252 -5.3035 -5.3596 -5.4038 -5.4618 -5.5180
-5.5401 -5.5649 -5.5916 -5.6192 -5.6607 -5.6726
-5.6846 -5.7085 -5.7021 -5.6892 -5.7039 -5.6929
-5.6791 -5.6837 -5.6533 -5.6395 -5.6358 -5.6063
-5.5842 -5.5502 -5.5207 -5.4876 -5.4185 -5.3679
-5.3219 -5.2629 -5.1911 -5.1000 -5.0199 -4.9177
-4.8081 -4.7151 -4.6093 -4.5080 -4.4058 -4.2907
-4.1803 -4.0808 -3.9657 -3.8415 -3.7429 -3.6095
-3.4879 -3.3986 -3.2697 -3.1583 -3.0359 -2.9254
-2.8334 -2.7247 -2.6133 -2.5010 -2.4053 -2.3003
-2.2101 -2.1180 -1.9993 -1.8823 -1.7857 -1.6826
-1.5573 -1.4570 -1.3419 -1.2232 -1.1136 -0.9884
-0.8871 -0.7628 -0.6275 -0.5207 -0.4019 -0.2795
-0.1598 -0.0429 0.0731 0.1910 0.3070 0.4128
0.5150 0.6384 0.7295 0.8013 0.9100 1.0030
1.0794 1.1567 1.2340 1.3086 1.3749 1.4458
1.5222 1.5876 1.6382 1.7146 1.7579 1.7929
1.8288 1.8555 1.9208 1.9411 1.9844 2.0424
2.0783 2.1298 2.1565 2.1989 2.2550 2.2928
2.3296 2.3830 2.4116 2.4383 2.4898 2.5137
2.5432 2.5791 2.6279 2.6951 2.7237 2.7669
2.8111 2.8387 2.8875 2.9299 2.9824 3.0072
3.0256 3.0717 3.1076 3.1352 3.1453 3.1582
3.1904 3.2125 3.2236 3.2365 3.2328 3.2401
3.2291 3.1960 3.1849 3.1444 3.0965 3.0496
3.0008 2.9538 2.8682 2.7798 2.7062 2.6371
2.5699 2.4880 2.4162 2.3444 2.2763 2.2247
2.1603 2.1197 2.0664 2.0185 1.9991 1.9402
1.8979 1.8712 1.8298 1.7837 1.7405 1.7193
1.6917 1.6705 1.6466 1.6134 1.5867 1.5490
1.5342 1.5140 1.4937 1.4790 1.4440 1.4330
1.4072 1.3621 1.3363 1.3022 1.2894 1.2848
1.2562 1.2332 1.2129 1.1945 1.1651 1.1319
1.1098 1.0739 1.0454 1.0279 1.0058 0.9975
0.9717 0.9404 0.9147 0.8834 0.8604 0.8355
0.8208 0.7950 0.7812 0.7738 0.7545 0.7517
0.7195 0.7002 0.6946 0.6818 0.6624 0.6339
0.6219 0.6053 0.5814 0.5538 0.5437 0.5326
0.5243 0.4903 0.4360 0.4240 0.4010 0.3890
0.3687 0.3292 0.3043 0.2748 0.2555 0.2362
0.2113 0.1865 0.1828 0.1625 0.1358 0.1303
0.1073 0.0935 0.0705 0.0254 0.0033 -0.0059
-0.0336 -0.0649 -0.0842 -0.1192 -0.1652 -0.1919
-0.2122 -0.2591 -0.3070 -0.3374 -0.3889 -0.4423
-0.4791 -0.5270 -0.5767 -0.6283 -0.6863 -0.7369
-0.7958 -0.8511 -0.8953 -0.9312 -0.9790 -1.0508
-1.0821 -1.1263 -1.1742 -1.1797 -1.2239 -1.2709
-1.2948 -1.3436 -1.3869 -1.4172 -1.4624 -1.4716
-1.4845 -1.5176 -1.5342 -1.5507 -1.5498 -1.5618
-1.5765 -1.5765 -1.5784 -1.5830 -1.5774 -1.5802
-1.5876 -1.5655 -1.5563 -1.5535 -1.5314 -1.5102
-1.4762 -1.4393 -1.3869 -1.3399 -1.3012 -1.2257
-1.1880 -1.1318 -1.0655 -1.0444 -0.9947 -0.9403
-0.8915 -0.8575 -0.8197 -0.7737 -0.7415 -0.7028
-0.6549 -0.6025 -0.5776 -0.5500 -0.5316 -0.5132
-0.4708 -0.4524 -0.4303 -0.4128 -0.3990 -0.3723
-0.3520 -0.3198 -0.2811 -0.2572 -0.2250 -0.1882
-0.1716 -0.1430 -0.1099 -0.0943 -0.0639 -0.0455
-0.0169 0.0218 0.0356 0.0577 0.0623 0.0816
0.1000 0.0982 0.1138 0.1249 0.1350 0.1442
0.1571 0.1507 0.1580 0.1672 0.1516 0.1709
0.1672 0.1645 0.1838 0.1939 0.1985 0.1847
0.1976 0.1902 0.1820 0.1976 0.1820 0.2004
0.2031 0.1801 0.1884 0.1810 0.1783 0.1663
0.1433 0.1332 0.1046 0.0779 0.0687 0.0531
0.0015 -0.0316 -0.0427 -0.0841 -0.1163 -0.1504
-0.1881 -0.2277 -0.2618 -0.2866 -0.3106 -0.3188
-0.3409 -0.3557 -0.3621 -0.3741 -0.3676 -0.3704
-0.3704 -0.3649 -0.3575 -0.3345 -0.3336 -0.3041
-0.2525 -0.2277 -0.1945 -0.1531 -0.1145 -0.0620
-0.0123 0.0319 0.0807 0.1258 0.1912 0.2501
0.3072 0.3542 0.3965 0.4665 0.5254 0.5788
0.6285 0.6617 0.6948 0.7353 0.7731 0.7878
0.7970 0.8191 0.8421 0.8559 0.8522 0.8301
0.8136 0.8044 0.7611 0.7160 0.6957 0.6571
0.6027 0.5245 0.4637 0.3910 0.3026 0.2409
0.1406 0.0476 -0.0408 -0.1356 -0.2102 -0.3105
-0.4099 -0.4946 -0.5904 -0.6714 -0.7423 -0.8353
-0.9264 -0.9955 -1.0792 -1.1759 -1.2560 -1.3517
-1.4429 -1.5267 -1.6150 -1.6859 -1.7725 -1.8691
-1.9511 -2.0183 -2.1030 -2.1812 -2.2337 -2.2889
-2.3350 -2.3893 -2.4261 -2.4666 -2.5265 -2.5541
-2.5992 -2.6406 -2.6636 -2.6931 -2.6940 -2.7170
-2.7520 -2.7631 -2.7778 -2.7778 -2.7824 -2.7861
-2.7732 -2.7695 -2.7594 -2.7419 -2.7281 -2.7161
-2.6848 -2.6415 -2.6121 -2.5826 -2.5384 -2.4620
-2.3930 -2.3405 -2.2539 -2.1738 -2.0956 -2.0109
-1.9262 -1.8194 -1.7246 -1.6242 -1.5211 -1.4263
-1.3195 -1.2127 -1.1133 -1.0055 -0.8951 -0.8104
-0.7027 -0.6069 -0.5259 -0.4430 -0.3703 -0.2957
-0.2340 -0.1742 -0.1263 -0.0683 -0.0140 0.0274
0.0744 0.1103 0.1379 0.1554 0.1775 0.1922
0.1941 0.1941 0.1738 0.1554 0.1287 0.0882
0.0587 0.0090 -0.0554 -0.1364 -0.2267 -0.3169
-0.3961 -0.4918 -0.5968 -0.6962 -0.8039 -0.9181
-1.0331 -1.1215 -1.2274 -1.3471 -1.4557 -1.5634
-1.6665 -1.7835 -1.8820 -1.9749 -2.0882 -2.1756
-2.2622 -2.3690 -2.4601 -2.5430 -2.6212 -2.7041
-2.7961 -2.8698 -2.9296 -2.9959 -3.0806 -3.1451
-3.1975 -3.2592 -3.3099 -3.3550 -3.4074 -3.4572
-3.5069 -3.5575 -3.5980 -3.6404 -3.6809 -3.7195
-3.7490 -3.7784 -3.8107 -3.8309 -3.8595 -3.8558
-3.8457 -3.8374 -3.7969 -3.7784 -3.7665 -3.7370
-3.6901 -3.6376 -3.5879 -3.5326 -3.4857 -3.4304
-3.3669 -3.3025 -3.2288 -3.1598 -3.0824 -2.9950
-2.9103 -2.8385 -2.7602 -2.6543 -2.5706 -2.4813
-2.3708 -2.2741 -2.1673 -2.0614 -1.9583 -1.8350
-1.7079 -1.5984 -1.4750 -1.3535 -1.2448 -1.1187
-0.9926 -0.8757 -0.7541 -0.6234 -0.4945 -0.3739
-0.2597 -0.1437 -0.0351 0.0717 0.1601 0.2475
0.3479 0.4169 0.4657 0.5265 0.6047 0.6526
0.7069 0.7548 0.7797 0.8340 0.8754 0.9159
0.9583 0.9850 1.0015 1.0227 1.0559 1.0761
1.0945 1.1139 1.1240 1.1424 1.1489 1.1424
1.1406 1.1406 1.1581 1.1452 1.1047 1.0844
1.0577 1.0181 0.9841 0.9316 0.8773 0.8432
0.7797 0.7318 0.6885 0.6232 0.5689 0.4952
0.4400 0.3912 0.3323 0.2945 0.2347 0.1923
0.1767 0.1353 0.1003 0.0819 0.0662 0.0487
0.0533 0.0588 0.0616 0.0736 0.0809 0.1196
0.1399 0.1712 0.2200 0.2485 0.3074 0.3599
0.4115 0.4796 0.5247 0.5652 0.6508 0.7263
0.7659 0.8257 0.8884 0.9510 1.0145 1.0762
1.1443 1.2189 1.2815 1.3303 1.3901 1.4380
1.5116 1.5696 1.5972 1.6737 1.7133 1.7455
1.7933 1.8440 1.8946 1.9195 1.9646 2.0097
2.0511 2.0751 2.0972 2.1340 2.1588 2.1865
2.2224 2.2426 2.2629 2.3015 2.3246 2.3623
2.3945 2.4203 2.4544 2.4535 2.4479 2.4599
2.4728 2.4802 2.4838 2.4829 2.4875 2.4931
2.4838 2.4866 2.4949 2.4921 2.5078 2.5391
2.5529 2.5557 2.5722 2.5943 2.6146 2.6523
2.6965 2.7260 2.7600 2.8033 2.8558 2.9184
2.9856 3.0648 3.1421 3.2001 3.2692 3.3447
3.4119 3.4910 3.5582 3.6181 3.6835 3.7479
3.8271 3.8934 3.9440 4.0002 4.0508 4.1005
4.1548 4.2101 4.2451 4.2754 4.3159 4.3353
4.3620 4.3841 4.3951 4.4117 4.4025 4.4062
4.4052 4.3942 4.3822 4.3528 4.3187 4.2856
4.2561 4.2285 4.1981 4.1392 4.1070 4.0821
4.0398 4.0002 3.9431 3.9035 3.8520 3.7792
3.7194 3.6586 3.5979 3.5325 3.4892 3.4340
3.3613 3.3143 3.2315 3.1486 3.0943 3.0114
2.9369 2.8761 2.8135 2.7629 2.6975 2.6459
2.6054 2.5566 2.5032 2.4231 2.3532 2.2952
2.2215 2.1451 2.0650 1.9702 1.8883 1.8091
1.7226 1.6507 1.5504 1.4546 1.3856 1.2834
1.1858 1.1168 1.0210 0.9041 0.7863 0.6896
0.5893 0.4742 0.3720 0.2615 0.1556 0.0286
-0.0865 -0.2200 -0.3700 -0.4676 -0.6094 -0.7705
-0.9095 -1.0863 -1.2364 -1.3763 -1.5503 -1.6939
-1.8569 -2.0171 -2.1745 -2.3632 -2.5077 -2.6854
-2.8686 -3.0251 -3.1955 -3.3713 -3.5517 -3.7257
-3.8758 -4.0194 -4.1925 -4.3361 -4.4963 -4.6270
-4.7513 -4.9180 -5.0321 -5.1776 -5.2945 -5.4068
-5.5118 -5.5735 -5.6839 -5.7668 -5.8340 -5.8920
-5.9380 -5.9905 -6.0015 -5.9969 -5.9933 -5.9877
-5.9472 -5.8911 -5.8358 -5.7419 -5.6305 -5.5016
-5.3801 -5.2365 -5.0726 -4.9308 -4.7587 -4.5911
-4.4245 -4.2431 -4.0746 -3.8979 -3.7451 -3.5959
-3.4191 -3.2442 -3.0573 -2.8612 -2.6836 -2.5123
-2.3089 -2.1220 -1.9507 -1.7408 -1.5530 -1.3845
-1.1857 -0.9748 -0.7935 -0.6121 -0.4225 -0.2429
-0.0542 0.1124 0.2827 0.4466 0.5921 0.7550
0.8830 0.9962 1.1150 1.2135 1.3185 1.4151
1.5026 1.5670 1.6379 1.7180 1.7641 1.8294
1.8884 1.9279 1.9592 1.9988 2.0587 2.0937
2.1194 2.1526 2.1912 2.2152 2.2437 2.2824
2.3100 2.3432 2.3791 2.4140 2.4720 2.5319
2.5834 2.6368 2.6838 2.7574 2.8329 2.8974
2.9766 3.0419 3.0898 3.1681 3.2297 3.2758
3.3467 3.4139 3.4820 3.5464 3.6302 3.7085
3.7720 3.8668 3.9653 4.0565 4.1495 4.2507
4.3575 4.4542 4.5509 4.6466 4.7783 4.8924
4.9790 5.0959 5.1898 5.2782 5.3767 5.4687
5.5479 5.5893 5.6510 5.7394 5.7680 5.7845
5.8149 5.8066 5.7965 5.7827 5.7302 5.6639
5.5995 5.5194 5.4347 5.3251 5.2055 5.1097
5.0066 4.8897 4.7764 4.6743 4.5794 4.4616
4.3253 4.2158 4.0878 3.9589 3.8402 3.6929
3.5649 3.4250 3.2731 3.1202 2.9748 2.8330
2.6783 2.5448 2.3975 2.2530 2.1066 1.9648
1.8442 1.7006 1.5478 1.4125 1.2771 1.1436
1.0258 0.8711 0.7100 0.5756 0.4366 0.2948
0.1420 -0.0016 -0.1471 -0.2953 -0.4546 -0.6212
-0.7740 -0.9315 -1.0935 -1.2500 -1.4111 -1.5658
-1.7020 -1.8411 -1.9782 -2.1044 -2.2452 -2.3815
-2.4763 -2.5932 -2.7184 -2.8206 -2.9449 -3.0139
-3.0811 -3.1843 -3.2551 -3.3095 -3.3417 -3.3896
-3.4301 -3.4650 -3.5037 -3.5240 -3.5461 -3.5543
-3.5755 -3.5755 -3.5589 -3.5599 -3.5313 -3.4963
-3.4540 -3.3923 -3.3362 -3.2828 -3.1916 -3.0986
-3.0056 -2.8860 -2.7856 -2.6696 -2.5564 -2.4809
-2.3842 -2.2921 -2.2305 -2.1651 -2.0914 -2.0123
-1.9469 -1.8907 -1.8116 -1.7305 -1.6615 -1.5796
-1.5041 -1.4424 -1.3531 -1.2619 -1.1993 -1.1156
-1.0198 -0.9323 -0.8292 -0.7270 -0.6212 -0.5107
-0.4103 -0.3137 -0.2152 -0.0973 0.0039 0.0850
0.1743 0.2580 0.3547 0.4477 0.5296 0.6162
0.6742 0.7395 0.8021 0.8473 0.9034 0.9504
0.9890 0.9964 1.0185 1.0489 1.0636 1.0829
1.0922 1.1207 1.1235 1.1253 1.1336 1.1253
1.1271 1.0783 1.0599 1.0627 1.0130 0.9697
0.9283 0.8915 0.8399 0.7736 0.7037 0.6539
0.5794 0.4799 0.4532 0.3833 0.2949 0.2424
0.1623 0.1080 0.0463 -0.0310 -0.1240 -0.2114
-0.2805 -0.3744 -0.4665 -0.5585 -0.6506 -0.7684
-0.8982 -1.0115 -1.1348 -1.2711 -1.4175 -1.5556
-1.7019 -1.8585 -2.0039 -2.1705 -2.3565 -2.5185
-2.6935 -2.8748 -3.0387 -3.2201 -3.3830 -3.5699
-3.7411 -3.9096 -4.0993 -4.2493 -4.4233 -4.5624
-4.7087 -4.8827 -5.0171 -5.1608 -5.2878 -5.4001
-5.5097 -5.6017 -5.6883 -5.7748 -5.8347 -5.8733
-5.9166 -5.9543 -5.9755 -5.9810 -5.9875 -5.9737
-5.9258 -5.8844 -5.8383 -5.7665 -5.6828 -5.5787
-5.4544 -5.3292 -5.1911 -5.0383 -4.8542 -4.6654
-4.5108 -4.3543 -4.1904 -4.0293 -3.8903 -3.7531
-3.5984 -3.4649 -3.3305 -3.1869 -3.0580 -2.9319
-2.7984 -2.6649 -2.5378 -2.4228 -2.2985 -2.1742
-2.0702 -1.9615 -1.8695 -1.7811 -1.6826 -1.6034
-1.5196 -1.4183 -1.3226 -1.2278 -1.1302 -1.0372
-0.9368 -0.8291 -0.7389 -0.6432 -0.5474 -0.4498
-0.3716 -0.3163 -0.2012 -0.0917 0.0041 0.1081
0.1937 0.3143 0.4211 0.5343 0.6614 0.7461
0.8566 0.9781 1.0508 1.1549 1.2699 1.3620
1.4697 1.5415 1.6336 1.7312 1.8094 1.9043
1.9825 2.0737 2.1685 2.2431 2.3333 2.4309
2.5018 2.5828 2.6712 2.7476 2.8286 2.9114
2.9943 3.0744 3.1591 3.2300 3.3101 3.4215
3.4997 3.5789 3.6728 3.7409 3.8238 3.9177
3.9923 4.0595 4.1442 4.2234 4.2943 4.3559
4.4222 4.4996 4.5465 4.5944 4.6386 4.6883
4.7352 4.7445 4.7748 4.8061 4.8061 4.8061
4.8043 4.8006 4.7776 4.7666 4.7472 4.6607
4.6054 4.5751 4.4968 4.4232 4.3541 4.2547
4.1746 4.0908 3.9914 3.9012 3.7852 3.6903
3.5974 3.4804 3.3672 3.2558 3.1453 3.0284
2.9133 2.8065 2.7117 2.6003 2.4898 2.3978
2.2928 2.1814 2.0737 1.9881 1.8979 1.7902
1.6889 1.5885 1.4891 1.3851 1.2838 1.1853
1.0896 0.9828 0.8732 0.7710 0.6458 0.5538
0.4552 0.3310 0.2242 0.1238 0.0373 -0.0760
-0.1772 -0.2711 -0.3871 -0.4856 -0.5980 -0.7103
-0.8097 -0.9165 -1.0104 -1.1025 -1.1844 -1.2663
-1.3639 -1.4394 -1.5241 -1.6097 -1.6825 -1.7662
-1.8288 -1.9163 -2.0277 -2.0875 -2.1501 -2.2358
-2.2891 -2.3711 -2.4521 -2.5110 -2.5884 -2.6371
-2.6924 -2.7706 -2.8342 -2.8839 -2.9520 -3.0183
-3.0662 -3.1269 -3.1996 -3.2641 -3.3359 -3.4224
-3.4823 -3.5292 -3.5789 -3.6241 -3.6793 -3.7299
-3.7695 -3.8128 -3.8441 -3.8561 -3.8947 -3.9242
-3.9058 -3.8984 -3.8864 -3.8662 -3.8349 -3.7833
-3.7290 -3.6461 -3.5449 -3.4473 -3.3626 -3.2705
-3.1573 -3.0551 -2.9520 -2.8636 -2.7798 -2.6767
-2.5948 -2.5036 -2.4143 -2.3140 -2.2017 -2.1216
-1.9881 -1.8942 -1.8012 -1.6529 -1.5618 -1.4716
-1.3869 -1.2681 -1.1696 -1.1024 -0.9882 -0.9063
-0.8290 -0.7259 -0.6200 -0.5095 -0.4082 -0.3070
-0.2112 -0.1238 -0.0473 0.0392 0.1138 0.1773
0.2500 0.3080 0.3798 0.4480 0.5281 0.5805
0.6321 0.7297 0.7748 0.8503 0.9018 0.9046
0.9488 0.9847 1.0050 1.0031 1.0160 1.0068
0.9930 1.0105 1.0031 0.9912 0.9672 0.9387
0.9221 0.8926 0.8466 0.7895 0.7260 0.6560
0.5686 0.4655 0.3605 0.2510 0.1552 0.0613
-0.0381 -0.1228 -0.2167 -0.2950 -0.3695 -0.4598
-0.5481 -0.6577 -0.7682 -0.8823 -1.0011 -1.1070
-1.2294 -1.3279 -1.4191 -1.5406 -1.6667 -1.7744
-1.8831 -2.0119 -2.1086 -2.2182 -2.3480 -2.4511
-2.5570 -2.6748 -2.7880 -2.9114 -3.0384 -3.1360
-3.2465 -3.3533 -3.4417 -3.5402 -3.6138 -3.6617
-3.7216 -3.8035 -3.8624 -3.9324 -3.9830 -4.0088
-4.0944 -4.0944 -4.0336 -4.1008 -4.1506 -4.1358
-4.1340 -4.1064 -4.0898 -4.0567 -3.9996 -3.9591
-3.8919 -3.8072 -3.7197 -3.6525 -3.5752 -3.4720
-3.3975 -3.2796 -3.1590 -3.0642 -2.9390 -2.8478
-2.7457 -2.6343 -2.5311 -2.4253 -2.3360 -2.2080
-2.1040 -2.0018 -1.8793 -1.7753 -1.6464 -1.5672
-1.4549 -1.2984 -1.2183 -1.1152 -1.0084 -0.8860
-0.7580 -0.6540 -0.5186 -0.4127 -0.3069 -0.1835
-0.0712 0.0577 0.1682 0.2787 0.4195 0.5217
0.6313 0.7519 0.8338 0.9102 0.9848 1.0750
1.1385 1.2085 1.3015 1.3751 1.4589 1.5206
1.5685 1.6265 1.6882 1.7388 1.7701 1.8189
1.8705 1.9211 1.9588 2.0030 2.0721 2.1144
2.1466 2.1770 2.2056 2.2470 2.2903 2.3345
2.3777 2.4201 2.4541 2.4762 2.5002 2.5499
2.5941 2.6171 2.6567 2.6990 2.7414 2.7893
2.8463 2.8896 2.9145 2.9716 3.0121 3.0470
3.0958 3.1299 3.1934 3.2441 3.2883 3.3545
3.4052 3.4392 3.4724 3.5276 3.5663 3.6077
3.6501 3.6759 3.7440 3.8038 3.8314 3.8554
3.8996 3.9456 3.9705 4.0045 4.0303 4.0524
4.0598 4.0423 4.0506 4.0515 4.0165 3.9741
3.9438 3.9014 3.8342 3.7661 3.6888 3.6022
3.5267 3.4632 3.4098 3.3527 3.2938 3.2376
3.1732 3.1051 3.0149 2.9237 2.8298 2.7110
2.6144 2.5205 2.4201 2.3161 2.2332 2.1578
2.0620 1.9727 1.8797 1.8079 1.7370 1.6707
1.5934 1.4682 1.3679 1.2924 1.1791 1.0650
0.9922 0.9121 0.8274 0.7455 0.6479 0.5715
0.4969 0.3993 0.3073 0.2134 0.1232 0.0375
-0.0766 -0.1806 -0.2718 -0.3703 -0.4799 -0.5922
-0.6741 -0.7745 -0.8665 -0.9429 -1.0239 -1.1114
-1.2035 -1.2771 -1.3710 -1.4355 -1.5100 -1.6233
-1.7043 -1.7743 -1.8479 -1.9068 -1.9519 -2.0228
-2.0882 -2.1443 -2.2033 -2.2557 -2.3239 -2.3681
-2.4150 -2.4749 -2.5209 -2.5678 -2.5982 -2.6433
-2.6875 -2.7400 -2.8063 -2.8394 -2.8836 -2.9186
-2.9379 -2.9591 -2.9886 -3.0107 -3.0245 -3.0521
-3.0677 -3.0898 -3.1073 -3.1092 -3.1082 -3.1248
-3.1423 -3.1469 -3.1405 -3.1230 -3.1257 -3.1193
-3.1128 -3.0963 -3.0686 -3.0392 -2.9895 -2.9600
-2.9232 -2.8836 -2.8514 -2.7934 -2.7529 -2.7059
-2.6470 -2.5881 -2.5061 -2.4352 -2.3607 -2.2723
-2.1738 -2.0725 -1.9685 -1.8681 -1.7687 -1.6435
-1.5321 -1.4244 -1.2955 -1.1592 -1.0313 -0.9180
-0.8112 -0.6934 -0.5636 -0.4384 -0.3132 -0.1990
-0.0719 0.0634 0.1868 0.3156 0.4188 0.5311
0.6535 0.7576 0.8690 0.9877 1.1065 1.2142
1.3293 1.4444 1.5484 1.6561 1.7509 1.8577
1.9636 2.0750 2.1799 2.2554 2.3558 2.4377
2.5105 2.5942 2.6679 2.7471 2.8115 2.8686
2.9358 2.9947 3.0500 3.1153 3.1595 3.2092
3.2626 3.2875 3.3289 3.3676 3.3989 3.4348
3.4495 3.4643 3.4744 3.4910 3.4965 3.5066
3.5305 3.5112 3.5084 3.5121 3.4937 3.4845
3.4615 3.4403 3.4247 3.3878 3.3630 3.3363
3.2976 3.2765 3.2304 3.1890 3.1605 3.1190
3.0629 3.0196 3.0040 2.9506 2.8926 2.8539
2.8125 2.7701 2.7158 2.6734 2.6320 2.5980
2.5777 2.5519 2.5225 2.4847 2.4663 2.4562
2.4258 2.3862 2.3733 2.3558 2.3264 2.3172
2.2969 2.2905 2.2757 2.2472 2.2389 2.2316
2.2196 2.2104 2.2049 2.2076 2.2049 2.1911
2.2104 2.2058 2.1865 2.1966 2.1911 2.1837
2.1726 2.1644 2.1736 2.1469 2.1266 2.1312
2.0981 2.0686 2.0419 1.9968 1.9609 1.9121
1.8569 1.8164 1.7795 1.7142 1.6599 1.6203
1.5439 1.5061 1.4684 1.4196 1.3717 1.2990
1.2355 1.1646 1.1176 1.0587 0.9685 0.8893
0.8129 0.7466 0.6904 0.6223 0.5551 0.4805
0.3986 0.3360 0.2568 0.1841 0.1077 0.0165
-0.0589 -0.1492 -0.2136 -0.2716 -0.3609 -0.4401
-0.5183 -0.6030 -0.6702 -0.7347 -0.8249 -0.9050
-0.9759 -1.0661 -1.1416 -1.2070 -1.2871 -1.3699
-1.4390 -1.5053 -1.5918 -1.6654 -1.7372 -1.8164
-1.8855 -1.9619 -2.0291 -2.0926 -2.1543 -2.2086
-2.2804 -2.3449 -2.3826 -2.4259 -2.4830 -2.5216
-2.5677 -2.6247 -2.6496 -2.6873 -2.7297 -2.7564
-2.7776 -2.8006 -2.8300 -2.8420 -2.8503 -2.8632
-2.8705 -2.8733 -2.8696 -2.8402 -2.8015 -2.7527
-2.6818 -2.6063 -2.5299 -2.4332 -2.3264 -2.2390
-2.1184 -1.9876 -1.8670 -1.7529 -1.6442 -1.5025
-1.3690 -1.2410 -1.1057 -0.9777 -0.8460 -0.7125
-0.5846 -0.4446 -0.2900 -0.1602 -0.0211 0.1234
0.2578 0.4070 0.5174 0.6399 0.7844 0.8967
1.0293 1.1518 1.2678 1.3865 1.4933 1.6323
1.7382 1.8211 1.9177 2.0070 2.1147 2.1783
2.2556 2.3099 2.3532 2.4268 2.4830 2.5327
2.5318 2.6064 2.6358 2.6441 2.7132 2.7380
2.7620 2.7951 2.8485 2.8614 2.8669 2.8881
2.9037 2.9074 2.9065 2.8973 2.9037 2.8899
2.8743 2.8688 2.8393 2.8347 2.7951 2.7647
2.7454 2.7049 2.6874 2.6368 2.5907 2.5502
2.4904 2.4573 2.3956 2.3210 2.2566 2.1884
2.1203 2.0503 1.9804 1.9012 1.8257 1.7346
1.6333 1.5541 1.4556 1.3313 1.2466 1.1693
1.0726 0.9796 0.8765 0.7725 0.6832 0.5856
0.4742 0.3674 0.2689 0.1842 0.0829 -0.0137
-0.1141 -0.2255 -0.3074 -0.3939 -0.4878 -0.5753
-0.6618 -0.7327 -0.8128 -0.9104 -0.9923 -1.0568
-1.1295 -1.2013 -1.2363 -1.3072 -1.3827 -1.4260
-1.4922 -1.5328 -1.5815 -1.6414 -1.6856 -1.7325
-1.7786 -1.8099 -1.8375 -1.8881 -1.9176 -1.9507
-1.9977 -2.0234 -2.0446 -2.0906 -2.1321 -2.1459
-2.1873 -2.2223 -2.2462 -2.2692 -2.2775 -2.3088
-2.3337 -2.3392 -2.3567 -2.3733 -2.3908 -2.4037
-2.4000 -2.3797 -2.3944 -2.4184 -2.3935 -2.3880
-2.3926 -2.3816 -2.3788 -2.3567 -2.3410 -2.3447
-2.3226 -2.2996 -2.3088 -2.2968 -2.2895 -2.2913
-2.2655 -2.2766 -2.2904 -2.2775 -2.2720 -2.2655
-2.2784 -2.2876 -2.2830 -2.2987 -2.3153 -2.3245
-2.3364 -2.3484 -2.3797 -2.4064 -2.4303 -2.4552
-2.4607 -2.4883 -2.5187 -2.5307 -2.5325 -2.5307
-2.5592 -2.5767 -2.5574 -2.5564 -2.5721 -2.5730
-2.5776 -2.5813 -2.6052 -2.6448 -2.6448 -2.6513
-2.6706 -2.6770 -2.6955 -2.7102 -2.7175 -2.7442
-2.7498 -2.7470 -2.7516 -2.7470 -2.7746 -2.7875
-2.7884 -2.8004 -2.8059 -2.8280 -2.8225 -2.8197
-2.8299 -2.8105 -2.8105 -2.8529 -2.8612 -2.8427
-2.8713 -2.8667 -2.8556 -2.8612 -2.8335 -2.8363
-2.8409 -2.8372 -2.8473 -2.8455 -2.8363 -2.8271
-2.8372 -2.8556 -2.8483 -2.8565 -2.8869 -2.8842
-2.8952 -2.8980 -2.8749 -2.8731 -2.8685 -2.8749
-2.8593 -2.8436 -2.8455 -2.8510 -2.8436 -2.8031
-2.8179 -2.8179 -2.7764 -2.7663 -2.7368 -2.6982
-2.6724 -2.6429 -2.6328 -2.6015 -2.5509 -2.5417
-2.5076 -2.4800 -2.4772 -2.4496 -2.4275 -2.4054
-2.3649 -2.3327 -2.3235 -2.2940 -2.2655 -2.2498
-2.2314 -2.2176 -2.2038 -2.1992 -2.2148 -2.2139
-2.1881 -2.1872 -2.1716 -2.1550 -2.1587 -2.1522
-2.1421 -2.1412 -2.1614 -2.1614 -2.1633 -2.1808
-2.1559 -2.1310 -2.1559 -2.1412 -2.0961 -2.0868
-2.0611 -2.0334 -1.9975 -1.9386 -1.9119 -1.8825
-1.8263 -1.7591 -1.6845 -1.6201 -1.5547 -1.4875
-1.4129 -1.3181 -1.2491 -1.1588 -1.0428 -0.9618
-0.8559 -0.7547 -0.6451 -0.5135 -0.4113 -0.2999
-0.1986 -0.0863 0.0435 0.1457 0.2700 0.4072
0.5186 0.6539 0.7883 0.8970 1.0166 1.1336
1.2505 1.3711 1.4972 1.6234 1.7357 1.8452
1.9723 2.0938 2.2052 2.3295 2.4427 2.5679
2.6876 2.7898 2.9132 3.0108 3.1001 3.2023
3.2805 3.3606 3.4435 3.5245 3.6064 3.6755
3.7068 3.7583 3.8301 3.8633 3.9204 3.9655
3.9811 4.0078 4.0226 4.0318 4.0364 4.0253
3.9931 3.9857 3.9692 3.9323 3.9148 3.8771
3.8513 3.8127 3.7510 3.7013 3.6377 3.5622
3.4674 3.3956 3.3238 3.2188 3.1415 3.0467
2.9353 2.8386 2.7309 2.6241 2.5219 2.4243
2.3378 2.2568 2.1675 2.0892 2.0230 1.9530
1.8895 1.8324 1.7808 1.7412 1.7053 1.6704
1.6556 1.6372 1.6096 1.6031 1.6041 1.6142
1.6206 1.6326 1.6593 1.6694 1.6851 1.7026
1.7136 1.7514 1.7836 1.7900 1.8149 1.8352
1.8545 1.8757 1.8794 1.9079 1.9346 1.9567
1.9825 1.9908 2.0036 2.0018 2.0036 2.0036
1.9788 1.9723 1.9696 1.9493 1.9245 1.9153
1.8996 1.8729 1.8499 1.8140 1.7735 1.7348
1.6980 1.6603 1.6142 1.5599 1.5102 1.4476
1.3684 1.3150 1.2460 1.1465 1.0720 0.9965
0.9145 0.8372 0.7442 0.6512 0.5619 0.4708
0.3824 0.2876 0.1909 0.0869 -0.0180 -0.1138
-0.2151 -0.3136 -0.4139 -0.5235 -0.6238 -0.7279
-0.8494 -0.9589 -1.0455 -1.1440 -1.2462 -1.3272
-1.4275 -1.5214 -1.5988 -1.6862 -1.7884 -1.8694
-1.9302 -2.0112 -2.0766 -2.1557 -2.1926 -2.2257
-2.3150 -2.3380 -2.3528 -2.3896 -2.4144 -2.4421
-2.4770 -2.5074 -2.5120 -2.5258 -2.5415 -2.5396
-2.5461 -2.5590 -2.5479 -2.5221 -2.5047 -2.4844
-2.4522 -2.4163 -2.3785 -2.3380 -2.3113 -2.2855
-2.2441 -2.2036 -2.1484 -2.0977 -2.0545 -1.9882
-1.9320 -1.8703 -1.8123 -1.7543 -1.6798 -1.6162
-1.5343 -1.4772 -1.4100 -1.3373 -1.2857 -1.1651
-1.1080 -1.0620 -0.9488 -0.9083 -0.8438 -0.7398
-0.6726 -0.5952 -0.5400 -0.5271 -0.4921 -0.4268
-0.3632 -0.3126 -0.2785 -0.2307 -0.1855 -0.1183
-0.0346 0.0023 0.0501 0.0870 0.1127 0.1634
0.2205 0.2775 0.3346 0.4138 0.4746 0.5344
0.5961 0.6817 0.8088 0.9367 1.0214 1.0472
1.1374 1.2543 1.3344 1.4504 1.5536 1.6300
1.7055 1.7948 1.8896 1.9494 2.0166 2.1179
2.2054 2.2661 2.3361 2.4042 2.4889 2.5552
2.5920 2.6712 2.7090 2.7274 2.7854 2.8020
2.8029 2.8277 2.8452 2.8554 2.8572 2.8415
2.8369 2.8277 2.8029 2.7882 2.7495 2.7108
2.6685 2.5994 2.5433 2.4475 2.3251 2.2404
2.1584 2.0553 1.9605 1.8703 1.7607 1.6631
1.5573 1.4339 1.3271 1.2295 1.1080 0.9892
0.8714 0.7490 0.6495 0.5317 0.4120 0.3098
0.2122 0.1100 0.0115 -0.0630 -0.1505 -0.2067
-0.2527 -0.3263 -0.4000 -0.4672 -0.5206 -0.5749
-0.6311 -0.6973 -0.7259 -0.7710 -0.8391 -0.8557
-0.9119 -0.9349 -0.9699 -1.0444 -1.0417 -1.0905
-1.1162 -1.0987 -1.1659 -1.1945 -1.2239 -1.2654
-1.2644 -1.3031 -1.3399 -1.3666 -1.4062 -1.4219
-1.4283 -1.4725 -1.5047 -1.5112 -1.5572 -1.5857
-1.5949 -1.6539 -1.7109 -1.7386 -1.7772 -1.8214
-1.8730 -1.9089 -1.9604 -2.0019 -2.0433 -2.1427
-2.1740 -2.2154 -2.2744 -2.2624 -2.3158 -2.3738
-2.3996 -2.4511 -2.4916 -2.5413 -2.5828 -2.6279
-2.6804 -2.7006 -2.7080 -2.7080 -2.7098 -2.6905
-2.6831 -2.6730 -2.6389 -2.6435 -2.6408 -2.6352
-2.6343 -2.6196 -2.6049 -2.5920 -2.5459 -2.4925
-2.4576 -2.3931 -2.3443 -2.3066 -2.2486 -2.1703
-2.1077 -2.0663 -1.9982 -1.9116 -1.8407 -1.7588
-1.6327 -1.5268 -1.4485 -1.3482 -1.2340 -1.1088
-0.9707 -0.8418 -0.7037 -0.5463 -0.4064 -0.2673
-0.1504 -0.0363 0.0908 0.2261 0.3651 0.5014
0.6671 0.8144 0.9415 1.0648 1.1974 1.3226
1.4349 1.5684 1.6936 1.7866 1.8787 2.0287
2.1429 2.2267 2.3537 2.4476 2.5397 2.6419
2.7422 2.8472 2.9291 3.0295 3.1261 3.1980
3.2541 3.3158 3.4134 3.4760 3.5137 3.5625
3.6049 3.6546 3.6997 3.7522 3.7982 3.8139
3.8461 3.8866 3.8967 3.9179 3.9142 3.8811
3.8719 3.8507 3.8148 3.7632 3.7117 3.6491
3.5717 3.4990 3.3858 3.2808 3.2007 3.1133
3.0212 2.9430 2.8831 2.7984 2.7423 2.6815
2.6106 2.5526 2.4790 2.4044 2.3353 2.2856
2.2157 2.1429 2.0877 2.0196 1.9689 1.9211
1.8575 1.8235 1.7876 1.7388 1.6955 1.6550
1.6320 1.5823 1.5095 1.4672 1.4184 1.3466
1.3162 1.2932 1.2481 1.1929 1.1413 1.1146
1.0630 1.0115 0.9710 0.9277 0.8881 0.8495
0.8182 0.7786 0.7353 0.6801 0.6340 0.5917
0.5272 0.4766 0.4435 0.3901 0.3339 0.2906
0.2465 0.1949 0.1231 0.0540 -0.0104 -0.0868
-0.1669 -0.2332 -0.2884 -0.3667 -0.4578 -0.5407
-0.6383 -0.7368 -0.8178 -0.9025 -1.0047 -1.1207
-1.2081 -1.3149 -1.4199 -1.5000 -1.6095 -1.6988
-1.7973 -1.9078 -1.9934 -2.0929 -2.1840 -2.2687
-2.3525 -2.4252 -2.4860 -2.5430 -2.6075 -2.6590
-2.7235 -2.7843 -2.8294 -2.8662 -2.8782 -2.9260
-2.9831 -3.0301 -3.0825 -3.1129 -3.1479 -3.2041
-3.2400 -3.2593 -3.3228 -3.3624 -3.3946 -3.4535
-3.4664 -3.5060 -3.5392 -3.5392 -3.5548 -3.5861
-3.6340 -3.6386 -3.6386 -3.6515 -3.6579 -3.6809
-3.6773 -3.6699 -3.6644 -3.6294 -3.6064 -3.5824
-3.5392 -3.4719 -3.4139 -3.3918 -3.3283 -3.2436
-3.1617 -3.0641 -2.9674 -2.8781 -2.7934 -2.6728
-2.5577 -2.4427 -2.3276 -2.2189 -2.0947 -1.9860
-1.8488 -1.7411 -1.6362 -1.5220 -1.4346 -1.3232
-1.2633 -1.1786 -1.0543 -0.9853 -0.9236 -0.8573
-0.7827 -0.7100 -0.6336 -0.5728 -0.5112 -0.4421
-0.3933 -0.3279 -0.2773 -0.2331 -0.1852 -0.1411
-0.0821 -0.0324 0.0007 0.0311 0.0781 0.1287
0.1664 0.2125 0.2493 0.3036 0.3543 0.3607
0.4058 0.4298 0.4169 0.4279 0.4325 0.4242
0.4316 0.4436 0.4454 0.4629 0.4776 0.4905
0.4924 0.5043 0.5172 0.5283 0.5366 0.5227
0.5375 0.5458 0.5458 0.5550 0.5439 0.5513
0.5458 0.5163 0.5025 0.4795 0.4592 0.4509
0.4187 0.3810 0.3488 0.3073 0.2595 0.2217
0.1748 0.1140 0.0569 0.0035 -0.0471 -0.0977
-0.1401 -0.1972 -0.2644 -0.3067 -0.3316 -0.3739
-0.4163 -0.4531 -0.4826 -0.5019 -0.5424 -0.5783
-0.6078 -0.6059 -0.6142 -0.6464 -0.6400 -0.6566
-0.6381 -0.5958 -0.5903 -0.5396 -0.5102 -0.5019
-0.4733 -0.4356 -0.3840 -0.3445 -0.3012 -0.2505
-0.1889 -0.1180 -0.0535 0.0118 0.0708 0.1370
0.2162 0.2853 0.3525 0.4215 0.5071 0.6011
0.6802 0.7806 0.8947 0.9905 1.0687 1.1415
1.2252 1.3265 1.3992 1.4757 1.5521 1.5963
1.6690 1.7132 1.7519 1.8080 1.8154 1.8227
1.8356 1.8145 1.8320 1.8568 1.7942 1.7399
1.6957 1.6175 1.5429 1.4490 1.3495 1.2492
1.1608 1.0752 0.9841 0.8994 0.8036 0.7079
0.6011 0.4998 0.3930 0.2825 0.1822 0.0616
-0.0424 -0.1400 -0.2505 -0.3398 -0.3996 -0.4816
-0.5875 -0.6510 -0.7246 -0.8020 -0.8388 -0.9152
-0.9944 -1.0284 -1.0763 -1.1168 -1.1288 -1.1435
-1.1490 -1.1444 -1.1352 -1.1131 -1.0901 -1.0404
-0.9796 -0.9272 -0.8590 -0.7835 -0.6979 -0.6022
-0.5184 -0.4254 -0.3122 -0.2017 -0.0664 0.0662
0.1868 0.3387 0.4713 0.6002 0.7300 0.8561
0.9933 1.1038 1.2152 1.3220 1.4131 1.5006
1.5890 1.6783 1.7722 1.8569 1.9204 1.9766
2.0373 2.1156 2.1469 2.1901 2.2518 2.2555
2.2730 2.3107 2.3448 2.3651 2.3835 2.4028
2.4139 2.4258 2.4396 2.4544 2.4516 2.4599
2.4673 2.4765 2.4949 2.5087 2.5280 2.5510
2.5676 2.5603 2.5777 2.5851 2.5704 2.5971
2.5851 2.5658 2.5713 2.5667 2.5741 2.5704
2.5704 2.5713 2.5676 2.5667 2.5713 2.5713
2.5621 2.5566 2.5566 2.5768 2.5768 2.5575
2.5612 2.5695 2.5547 2.5428 2.5345 2.5317
2.5244 2.4986 2.4682 2.4461 2.4213 2.3605
2.3347 2.3071 2.2629 2.2546 2.2399 2.2206
2.2068 2.1883 2.1570 2.1211 2.0512 1.9830
1.9140 1.8229 1.7557 1.6719 1.5927 1.5531
1.4896 1.4095 1.3441 1.2852 1.2162 1.1379
1.0615 0.9713 0.8838 0.8037 0.7163 0.6233
0.5395 0.4566 0.3729 0.3038 0.2145 0.1464
0.0866 0.0046 -0.0607 -0.1372 -0.2099 -0.2891
-0.3701 -0.4400 -0.5229 -0.6012 -0.6628 -0.7273
-0.8074 -0.8884 -0.9611 -1.0173 -1.0790 -1.1480
-1.2124 -1.2769 -1.3367 -1.4049 -1.4555 -1.5374
-1.6313 -1.6544 -1.7151 -1.7943 -1.8274 -1.8891
-1.9517 -2.0014 -2.0548 -2.1128 -2.1607 -2.2067
-2.2702 -2.3117 -2.3734 -2.4304 -2.4525 -2.5022
-2.5630 -2.6118 -2.6422 -2.6643 -2.6901 -2.7094
-2.7306 -2.7352 -2.7195 -2.7020 -2.6523 -2.6284
-2.5851 -2.5068 -2.4691 -2.3918 -2.3209 -2.2445
-2.1625 -2.1064 -2.0051 -1.9001 -1.8127 -1.7132
-1.5807 -1.4573 -1.3257 -1.1848 -1.0577 -0.9086
-0.7622 -0.6158 -0.4934 -0.3590 -0.1923 -0.0515
0.0903 0.2588 0.4226 0.5690 0.7311 0.9115
1.0873 1.2567 1.4004 1.5394 1.7033 1.8616
1.9813 2.1111 2.2501 2.3965 2.5337 2.6515
2.8099 2.9259 3.0363 3.1790 3.2739 3.3853
3.5123 3.6136 3.7093 3.7775 3.8364 3.9266
4.0003 4.0693 4.1540 4.2148 4.2718 4.3345
4.3989 4.4624 4.5167 4.5720 4.6254 4.6751
4.7266 4.7791 4.8187 4.8519 4.8850 4.9071
4.9237 4.9274 4.9264 4.9301 4.9301 4.9228
4.8951 4.8850 4.8546 4.8012 4.7616 4.6889
4.6088 4.5066 4.4008 4.3133 4.1945 4.0583
3.9202 3.7996 3.6836 3.5740 3.4700 3.3761
3.2988 3.2177 3.1202 3.0373 2.9655 2.8559
2.7390 2.6074 2.4886 2.3763 2.2502 2.1378
2.0246 1.9031 1.7963 1.6812 1.5376 1.4262
1.2881 1.1500 1.0239 0.8628 0.7192 0.5719
0.4209 0.2671 0.1106 -0.0422 -0.2208 -0.3948
-0.5393 -0.7318 -0.9233 -1.0917 -1.2878 -1.4710
-1.6772 -1.8733 -2.0676 -2.2849 -2.4718 -2.6586
-2.8584 -3.0600 -3.2681 -3.4743 -3.6631 -3.8463
-4.0341 -4.2099 -4.3775 -4.5312 -4.6776 -4.8267
-4.9740 -5.1066 -5.2567 -5.4150 -5.5338 -5.6682
-5.8192 -5.9619 -6.0963 -6.2206 -6.3568 -6.4857
-6.6164 -6.7416 -6.8521 -6.9672 -7.0758 -7.1900
-7.3032 -7.3796 -7.4616 -7.5711 -7.6439 -7.7295
-7.8418 -7.9145 -7.9817 -8.0416 -8.0968 -8.1557
-8.1999 -8.2331 -8.2579 -8.2819 -8.2819 -8.2865
-8.3086 -8.2920 -8.2561 -8.2137 -8.1723 -8.1060
-7.9900 -7.8648 -7.7212 -7.5684 -7.4045 -7.2231
-7.0602 -6.8908 -6.7177 -6.5492 -6.3909 -6.2436
-6.0990 -5.9646 -5.8081 -5.6672 -5.5365 -5.3625
-5.1903 -5.0421 -4.8672 -4.6904 -4.5615 -4.4124
-4.2467 -4.1334 -4.0294 -3.9217 -3.8204 -3.7201
-3.6216 -3.4918 -3.3748 -3.2588 -3.1263 -3.0011
-2.8363 -2.6945 -2.5831 -2.4606 -2.3225 -2.2065
-2.1209 -1.9837 -1.8770 -1.7610 -1.6265 -1.5207
-1.3872 -1.2739 -1.1294 -1.0051 -0.8974 -0.7372
-0.6240 -0.5126 -0.3846 -0.2714 -0.1434 -0.0237
0.0840 0.2249 0.3611 0.4845 0.6401 0.7828
0.9071 1.0608 1.2275 1.3692 1.5138 1.6749
1.8203 1.9621 2.1067 2.2521 2.4059 2.5569
2.6940 2.8413 3.0144 3.1801 3.3431 3.4849
3.6248 3.7813 3.9074 4.0317 4.1661 4.2867
4.3733 4.4727 4.5823 4.6808 4.7848 4.8621
4.9422 5.0214 5.0803 5.1282 5.1742 5.2267
5.2562 5.2635 5.2810 5.2764 5.2691 5.2737
5.2488 5.2074 5.1623 5.1153 5.0536 4.9901
4.8971 4.7931 4.6983 4.5685 4.4313 4.2693
4.1164 3.9526 3.7602 3.5991 3.4343 3.2731
3.1074 2.9518 2.8331 2.6913 2.5679 2.4538
2.3286 2.2356 2.1233 2.0229 1.9281 1.8250
1.7569 1.6832 1.6252 1.5589 1.5249 1.5055
1.4669 1.4733 1.4503 1.4356 1.4153 1.3859
1.3619 1.3242 1.3122 1.2726 1.2524 1.2275
1.1833 1.1631 1.1299 1.1097 1.0949 1.0692
1.0185 0.9679 0.9200 0.8740 0.8243 0.7377
0.6512 0.5739 0.5076 0.4395 0.3456 0.2673
0.1964 0.1228 0.0565 -0.0199 -0.0954 -0.1774
-0.2611 -0.3504 -0.4333 -0.5281 -0.6386 -0.6966
-0.7638 -0.8503 -0.9093 -0.9627 -1.0188 -1.0612
-1.0952 -1.1477 -1.1818 -1.2149 -1.2582 -1.2968
-1.3420 -1.3604 -1.3806 -1.4165 -1.4312 -1.4349
-1.4451 -1.4625 -1.4782 -1.4810 -1.4957 -1.5205
-1.5316 -1.5463 -1.5749 -1.6016 -1.6255 -1.6439
-1.6596 -1.6789 -1.7010 -1.7231 -1.7387 -1.7645
-1.7912 -1.8197 -1.8464 -1.8814 -1.9348 -1.9588
-1.9919 -2.0481 -2.0766 -2.1097 -2.1622 -2.1954
-2.2156 -2.2432 -2.2469 -2.2478 -2.2303 -2.2000
-2.2064 -2.2138 -2.2202 -2.2220 -2.2266 -2.2451
-2.2782 -2.2920 -2.2985 -2.3380 -2.3426 -2.3491
-2.3629 -2.3565 -2.3592 -2.3629 -2.3592 -2.3491
-2.3675 -2.3574 -2.3454 -2.3638 -2.3620 -2.3482
-2.3205 -2.3187 -2.2883 -2.2506 -2.2045 -2.1383
-2.1217 -2.0296 -1.9606 -1.9164 -1.8215 -1.7672
-1.6835 -1.5988 -1.5122 -1.4119 -1.3382 -1.2268
-1.1080 -1.0068 -0.8843 -0.7739 -0.6680 -0.5474
-0.4314 -0.3145 -0.1985 -0.1064 -0.0106 0.1044
0.2048 0.3024 0.4018 0.5022 0.5740 0.6577
0.7830 0.8446 0.9026 1.0076 1.0812 1.1586
1.2350 1.2985 1.3648 1.4237 1.4698 1.5139
1.5913 1.6392 1.6760 1.7432 1.7726 1.8086
1.8638 1.9043 1.9236 1.9513 1.9918 2.0148
2.0415 2.0691 2.1032 2.1372 2.1547 2.1685
2.1777 2.1962 2.2118 2.2026 2.2182 2.2247
2.2146 2.2238 2.2127 2.2035 2.1814 2.1538
2.1308 2.0986 2.0811 2.0452 2.0157 1.9872
1.9467 1.9329 1.9034 1.8657 1.8371 1.7985
1.7727 1.7579 1.7202 1.6751 1.6613 1.6217
1.5839 1.5701 1.5361 1.5057 1.4753 1.4578
1.4284 1.4136 1.4090 1.3741 1.3547 1.3446
1.3326 1.3013 1.2848 1.2829 1.2636 1.2663
1.2654 1.2424 1.2461 1.2544 1.2654 1.2875
1.2802 1.2802 1.2912 1.2930 1.2894 1.3013
1.3096 1.2783 1.2654 1.2608 1.2571 1.2507
1.2010 1.1669 1.1384 1.0970 1.0592 1.0104
0.9699 0.9230 0.8604 0.8042 0.7508 0.7039
0.6578 0.5842 0.5188 0.4709 0.4019 0.3439
0.2721 0.2067 0.1423 0.0539 0.0097 -0.0566
-0.1422 -0.2066 -0.2821 -0.3493 -0.4165 -0.4911
-0.5896 -0.6780 -0.7415 -0.8299 -0.9174 -1.0011
-1.1079 -1.2101 -1.2930 -1.3777 -1.4799 -1.5710
-1.6502 -1.7367 -1.8233 -1.9089 -1.9825 -2.0682
-2.1621 -2.2431 -2.3296 -2.4097 -2.5055 -2.6040
-2.6712 -2.7282 -2.8249 -2.9234 -2.9805 -3.0532
-3.1416 -3.2189 -3.2733 -3.3303 -3.4233 -3.4730
-3.5347 -3.6194 -3.6627 -3.7327 -3.7962 -3.8551
-3.9159 -3.9674 -4.0337 -4.0880 -4.1644 -4.2261
-4.2546 -4.3145 -4.3412 -4.3504 -4.4102 -4.4342
-4.4397 -4.4664 -4.4719 -4.4949 -4.5244 -4.5216
-4.5069 -4.4940 -4.4839 -4.4636 -4.4203 -4.3881
-4.3743 -4.3375 -4.2961 -4.2261 -4.1672 -4.1322
-4.0502 -3.9692 -3.8993 -3.8164 -3.7207 -3.6314
-3.5430 -3.4353 -3.3515 -3.2732 -3.1747 -3.0900
-3.0053 -2.9206 -2.8424 -2.7742 -2.7024 -2.6242
-2.5441 -2.4621 -2.4354 -2.3526 -2.2467 -2.2090
-2.1473 -2.0782 -2.0055 -1.9401 -1.8517 -1.7588
-1.6989 -1.6207 -1.5424 -1.4375 -1.3426 -1.2745
-1.1613 -1.0535 -0.9652 -0.8492 -0.7387 -0.6254
-0.4975 -0.3990 -0.2710 -0.1182 -0.0077 0.1074
0.2169 0.3624 0.5235 0.6487 0.7831 0.9129
1.0446 1.1937 1.3410 1.4718 1.6255 1.7645
1.9063 2.0812 2.2000 2.3372 2.5047 2.6318
2.7395 2.8656 3.0267 3.1501 3.2716 3.4171
3.5395 3.6721 3.7826 3.9041 4.0358 4.1444
4.2705 4.3902 4.5007 4.6121 4.7244 4.8183
4.9141 5.0116 5.0982 5.1921 5.2630 5.3247
5.3983 5.4646 5.5152 5.5696 5.6423 5.6846
5.6984 5.7555 5.7887 5.8098 5.8347 5.8375
5.8688 5.8678 5.8642 5.8669 5.8504 5.8393
5.8255 5.8135 5.7804 5.7629 5.7307 5.6626
5.6184 5.5760 5.5088 5.4471 5.3900 5.3192
5.2409 5.1746 5.1139 5.0347 4.9500 4.8570
4.7769 4.6931 4.5928 4.5072 4.4114 4.3194
4.2181 4.1113 4.0119 3.9180 3.8296 3.7375
3.6491 3.5700 3.4871 3.4015 3.3085 3.2109
3.1391 3.0470 2.9449 2.8740 2.7994 2.7175
2.6318 2.5462 2.4680 2.3768 2.2931 2.2203
2.1568 2.0878 2.0067 1.9377 1.8696 1.8134
1.7398 1.6716 1.6228 1.5400 1.4626 1.3908
1.3264 1.2518 1.1625 1.1266 1.0760 0.9904
0.9370 0.8873 0.8357 0.7906 0.7261 0.6727
0.6276 0.5567 0.5024 0.4674 0.4205 0.3643
0.3165 0.2658 0.2106 0.1802 0.1314 0.0946
0.0587 0.0025 -0.0297 -0.0822 -0.1291 -0.1623
-0.2110 -0.2608 -0.3188 -0.3731 -0.4210 -0.4633
-0.5231 -0.5894 -0.6318 -0.6796 -0.7395 -0.8002
-0.8555 -0.9098 -0.9669 -1.0249 -1.0976 -1.1519
-1.2201 -1.3020 -1.3250 -1.3977 -1.4732 -1.5027
-1.5957 -1.6445 -1.6822 -1.7448 -1.7954 -1.8452
-1.8774 -1.9381 -1.9713 -2.0063 -2.0403 -2.0560
-2.0928 -2.0928 -2.1112 -2.1223 -2.1103 -2.1269
-2.1140 -2.1038 -2.0771 -2.0394 -2.0182 -1.9464
-1.9087 -1.8617 -1.7807 -1.7439 -1.6849 -1.6196
-1.5524 -1.4704 -1.4014 -1.3415 -1.2918 -1.2255
-1.1464 -1.0865 -1.0350 -0.9779 -0.9153 -0.8398
-0.7496 -0.6695 -0.6023 -0.5286 -0.4605 -0.3850
-0.3058 -0.2616 -0.2092 -0.1263 -0.0637 0.0044
0.0827 0.1471 0.2180 0.2622 0.3129 0.3736
0.4086 0.4740 0.5274 0.5633 0.6231 0.6682
0.7198 0.7713 0.8164 0.8643 0.8984 0.9499
0.9858 1.0162 1.0623 1.1000 1.1451 1.1875
1.2169 1.2390 1.2860 1.3191 1.3228 1.3366
1.3652 1.3596 1.3394 1.3633 1.3596 1.3311
1.3053 1.2952 1.2805 1.2593 1.2390 1.1912
1.1645 1.1194 1.0678 1.0328 0.9905 0.9389
0.8855 0.8469 0.7769 0.7226 0.6637 0.5734
0.5163 0.4648 0.3985 0.3193 0.2411 0.1619
0.0846 0.0109 -0.0609 -0.1345 -0.2238 -0.3104
-0.3942 -0.4678 -0.5461 -0.6538 -0.7495 -0.8278
-0.9281 -1.0368 -1.1353 -1.2246 -1.3185 -1.4124
-1.5146 -1.6204 -1.7208 -1.8165 -1.9104 -2.0089
-2.1028 -2.2124 -2.2925 -2.3671 -2.4573 -2.5438
-2.6138 -2.6755 -2.7592 -2.8154 -2.8872 -2.9664
-3.0382 -3.1312 -3.1965 -3.2582 -3.3273 -3.4064
-3.4884 -3.5694 -3.6449 -3.7020 -3.7756 -3.8465
-3.9202 -3.9910 -4.0435 -4.1144 -4.1779 -4.2323
-4.2774 -4.3289 -4.3869 -4.4164 -4.4596 -4.4965
-4.5149 -4.5379 -4.5517 -4.5618 -4.5425 -4.5554
-4.5655 -4.5397 -4.5443 -4.5296 -4.5029 -4.4633
-4.4210 -4.3713 -4.3022 -4.2525 -4.1549 -4.0647
-3.9873 -3.8566 -3.7517 -3.6311 -3.5012 -3.3852
-3.2564 -3.1357 -2.9977 -2.8863 -2.7610 -2.6432
-2.5493 -2.4250 -2.3283 -2.2225 -2.1009 -2.0015
-1.9122 -1.8109 -1.7041 -1.6342 -1.5458 -1.4473
-1.4003 -1.3506 -1.2816 -1.2227 -1.1619 -1.1131
-1.0892 -1.0284 -0.9722 -0.9437 -0.9078 -0.8792
-0.8479 -0.8222 -0.7899 -0.7697 -0.7513 -0.7200
-0.7089 -0.6776 -0.6445 -0.6279 -0.6030 -0.5957
-0.5865 -0.5543 -0.5423 -0.5257 -0.4935 -0.4751
-0.4585 -0.4254 -0.3885 -0.3545 -0.3176 -0.2909
-0.2606 -0.2283 -0.1989 -0.1538 -0.1206 -0.0912
-0.0488 -0.0092 0.0423 0.1013 0.1556 0.2090
0.2688 0.3305 0.3876 0.4539 0.5349 0.6067
0.6693 0.7586 0.8359 0.9068 1.0016 1.0845
1.1674 1.2640 1.3322 1.4058 1.5052 1.5817
1.6756 1.7750 1.8588 1.9389 2.0226 2.1184
2.1884 2.2685 2.3578 2.4296 2.4977 2.5695
2.6542 2.7104 2.7693 2.8457 2.9193 2.9764
3.0068 3.0602 3.1016 3.1201 3.1504 3.1771
3.2075 3.2232 3.2379 3.2471 3.2434 3.2554
3.2407 3.2112 3.1919 3.1532 3.1026 3.0519
2.9875 2.9230 2.8604 2.7822 2.7223 2.6644
2.5668 2.4876 2.4011 2.3044 2.2326 2.1470
2.0457 1.9453 1.8597 1.7677 1.6793 1.5679
1.4408 1.3571 1.2549 1.1407 1.0284 0.9326
0.8323 0.6997 0.6067 0.5092 0.3932 0.2873
0.1731 0.0580 -0.0405 -0.1426 -0.2623 -0.3719
-0.4768 -0.5882 -0.6996 -0.8018 -0.9095 -1.0301
-1.1397 -1.2446 -1.3385 -1.4186 -1.5079 -1.6138
-1.7013 -1.7851 -1.8780 -1.9333 -2.0124 -2.1183
-2.1515 -2.2325 -2.3282 -2.3568 -2.4102 -2.4470
-2.4912 -2.5344 -2.5427 -2.5584 -2.5621 -2.5722
-2.5648 -2.5446 -2.5418 -2.5179 -2.4746 -2.4322
-2.3733 -2.3043 -2.2481 -2.1616 -2.0640 -1.9738
-1.8633 -1.7473 -1.6230 -1.5199 -1.4085 -1.2842
-1.1618 -1.0255 -0.9233 -0.7871 -0.6591 -0.5569
-0.3857 -0.2549 -0.1389 0.0213 0.1723 0.3177
0.4530 0.5746 0.7154 0.8710 0.9935 1.1205
1.2466 1.3903 1.5320 1.6591 1.8064 1.9242
2.0614 2.2041 2.3266 2.4545 2.5788 2.6967
2.8136 2.9397 3.0354 3.1284 3.2454 3.3457
3.4267 3.5234 3.6182 3.7075 3.7867 3.8355
3.9091 3.9865 4.0389 4.0877 4.1319 4.1724
4.2130 4.2710 4.3041 4.3382 4.3934 4.4081
4.4311 4.4496 4.4542 4.4625 4.4394 4.4293
4.4137 4.3999 4.3768 4.3308 4.3032 4.2433
4.1946 4.1458 4.0509 3.9672 3.8898 3.8070
3.7167 3.6357 3.5584 3.4792 3.3936 3.2942
3.2251 3.1681 3.1018 3.0300 2.9628 2.9094
2.8422 2.7731 2.7169 2.6424 2.5522 2.4868
2.3956 2.2925 2.2189 2.1333 2.0513 1.9620
1.8635 1.7705 1.6849 1.6021 1.4980 1.4023
1.3240 1.1915 1.0764 0.9862 0.8545 0.7542
0.6428 0.5286 0.4292 0.3031 0.1935 0.0646
-0.0551 -0.1499 -0.2788 -0.3994 -0.5228 -0.6369
-0.7640 -0.8910 -0.9923 -1.1202 -1.2482 -1.3789
-1.4913 -1.5944 -1.7113 -1.8383 -1.9562 -2.0510
-2.1753 -2.2876 -2.3981 -2.5132 -2.6043 -2.6918
-2.8096 -2.9284 -3.0002 -3.1005 -3.2018 -3.2920
-3.3712 -3.4586 -3.5654 -3.6326 -3.7183 -3.8048
-3.8867 -3.9466 -3.9935 -4.0709 -4.1381 -4.2053
-4.2384 -4.2881 -4.3369 -4.3424 -4.3802 -4.3940
-4.3958 -4.4050 -4.3922 -4.3572 -4.3028 -4.2697
-4.2126 -4.1150 -4.0156 -3.9014 -3.7937 -3.6713
-3.5249 -3.4117 -3.2855 -3.1511 -3.0250 -2.8915
-2.7525 -2.6015 -2.4763 -2.3235 -2.1596 -2.0031
-1.8328 -1.6763 -1.4986 -1.3356 -1.1727 -1.0060
-0.8744 -0.7234 -0.5558 -0.4039 -0.2520 -0.0891
0.0352 0.1650 0.3271 0.4605 0.6014 0.7432
0.8656 0.9899 1.1041 1.2247 1.3324 1.4281
1.5313 1.6160 1.6942 1.7623 1.8443 1.9253
1.9916 2.0689 2.1122 2.1904 2.2558 2.2834
2.3414 2.3810 2.4151 2.4501 2.4583 2.4657
2.4970 2.4924 2.4952 2.5246 2.5136 2.5053
2.4943 2.4906 2.4676 2.4344 2.4206 2.3902
2.3681 2.3258 2.2834 2.2429 2.1941 2.1463
2.1012 2.0643 1.9953 1.9511 1.9005 1.8342
1.7909 1.7182 1.6602 1.5902 1.5083 1.4576
1.3858 1.2975 1.2395 1.1833 1.1060 1.0434
1.0019 0.9522 0.8988 0.8712 0.8307 0.7865
0.7497 0.7147 0.6954 0.6687 0.6475 0.6410
0.6457 0.6318 0.6079 0.6171 0.6153 0.5987
0.6061 0.5959 0.5877 0.5867 0.5665 0.5453
0.5315 0.5251 0.4901 0.4514 0.4100 0.3621
0.3363 0.3041 0.2664 0.2203 0.1725 0.1181
0.0528 -0.0080 -0.0862 -0.1617 -0.2335 -0.3155
-0.3974 -0.4793 -0.5797 -0.6754 -0.7491 -0.8614
-0.9746 -1.0759 -1.1781 -1.2656 -1.3788 -1.4727
-1.5684 -1.6918 -1.8004 -1.9128 -2.0269 -2.1374
-2.2516 -2.3676 -2.4688 -2.5784 -2.6741 -2.7745
-2.8849 -2.9761 -3.0764 -3.1538 -3.2560 -3.3710
-3.4410 -3.5156 -3.6049 -3.6868 -3.7688 -3.8599
-3.9225 -3.9915 -4.0707 -4.1315 -4.1840 -4.2383
-4.2954 -4.3534 -4.4169 -4.4693 -4.5246 -4.5734
-4.6166 -4.6562 -4.6774 -4.6912 -4.7087 -4.7400
-4.7676 -4.7851 -4.7851 -4.7796 -4.7750 -4.7639
-4.7336 -4.6977 -4.6645 -4.6286 -4.5789 -4.4997
-4.4518 -4.3635 -4.2300 -4.1434 -4.0201 -3.9041
-3.8212 -3.7098 -3.6187 -3.5422 -3.4603 -3.3636
-3.2771 -3.1942 -3.1068 -3.0285 -2.9309 -2.8453
-2.7551 -2.6547 -2.5728 -2.4844 -2.4108 -2.3279
-2.2322 -2.1585 -2.0711 -1.9725 -1.8906 -1.8105
-1.7148 -1.6245 -1.5417 -1.4413 -1.3336 -1.2370
-1.1430 -1.0224 -0.9055 -0.8043 -0.7011 -0.5934
-0.4737 -0.3762 -0.2611 -0.1580 -0.0641 0.0630
0.1652 0.2729 0.3861 0.4985 0.6089 0.7185
0.8345 0.9533 1.0785 1.1880 1.2948 1.4071
1.5158 1.6189 1.7229 1.8279 1.9310 2.0267
2.1390 2.2477 2.3462 2.4594 2.5487 2.6436
2.7421 2.8369 2.9207 2.9998 3.1039 3.1775
3.2558 3.3405 3.3957 3.4500 3.5034 3.5624
3.6001 3.6314 3.6894 3.6995 3.7152 3.7566
3.7649 3.7612 3.7437 3.7299 3.7152 3.6867
3.6517 3.6130 3.5679 3.5145 3.4399 3.3414
3.2521 3.1444 3.0312 2.9253 2.8001 2.6786
2.5589 2.4613 2.3665 2.2634 2.1833 2.0995
2.0268 1.9540 1.8887 1.8371 1.7561 1.6907
1.6226 1.5453 1.5038 1.4440 1.3924 1.3667
1.3216 1.2866 1.2645 1.2323 1.1927 1.1485
1.1181 1.0932 1.0527 1.0178 0.9846 0.9736
0.9625 0.9100 0.8999 0.8962 0.8530 0.8410
0.8106 0.7674 0.7480 0.7121 0.6845 0.6431
0.6007 0.5676 0.5206 0.4921 0.4626 0.4230
0.3696 0.3116 0.2693 0.2398 0.2030 0.1496
0.0925 0.0437 0.0134 -0.0548 -0.1026 -0.1358
-0.2021 -0.2472 -0.3015 -0.3558 -0.4101 -0.4580
-0.5013 -0.5556 -0.5952 -0.6449 -0.6799 -0.7176
-0.7811 -0.8152 -0.8548 -0.9063 -0.9358 -0.9772
-1.0315 -1.0748 -1.0914 -1.1172 -1.1512 -1.1779
-1.1963 -1.2028 -1.2341 -1.2193 -1.2286 -1.2773
-1.2829 -1.2985 -1.2829 -1.3004 -1.3372 -1.3280
-1.3427 -1.3528 -1.3390 -1.3280 -1.3510 -1.3740
-1.3519 -1.3528 -1.3749 -1.3814 -1.3758 -1.3630
-1.3804 -1.3814 -1.3722 -1.3666 -1.3473 -1.3418
-1.3215 -1.2994 -1.2875 -1.2746 -1.2534 -1.2405
-1.2193 -1.1834 -1.1687 -1.1576 -1.1429 -1.0932
-1.0508 -1.0665 -1.0232 -0.9523 -0.9579 -0.9486
-0.8971 -0.8520 -0.8059 -0.7894 -0.7820 -0.7351
-0.6872 -0.6458 -0.6163 -0.5970 -0.5518 -0.5141
-0.4920 -0.4368 -0.3815 -0.3622 -0.3263 -0.2821
-0.2443 -0.2094 -0.1956 -0.1725 -0.1293 -0.1053
-0.0786 -0.0473 -0.0105 -0.0059 -0.0271 0.0429
0.0797 0.0595 0.0871 0.0853 0.0972 0.1258
0.1166 0.1515 0.1672 0.1488 0.1626 0.1654
0.1700 0.1727 0.1534 0.1580 0.1764 0.1654
0.1589 0.1672 0.1571 0.1497 0.1506 0.1331
0.1166 0.1092 0.0899 0.0908 0.0733 0.0577
0.0457 -0.0031 0.0070 0.0208 -0.0059 -0.0123
-0.0077 -0.0142 -0.0307 -0.0519 -0.0602 -0.0464
-0.0639 -0.0721 -0.0611 -0.0620 -0.0528 -0.0611
-0.0685 -0.0408 -0.0372 -0.0418 -0.0151 -0.0160
-0.0049 -0.0013 -0.0123 0.0116 0.0162 0.0153
-0.0105 -0.0049 0.0006 -0.0233 0.0098 -0.0261
-0.0316 0.0383 0.0209 -0.0150 -0.0095 -0.0095
-0.0114 -0.0362 -0.0694 -0.0491 -0.0638 -0.1062
-0.1126 -0.1034 -0.1071 -0.1172 -0.1154 -0.1108
-0.0924 -0.0988 -0.0776 -0.0445 -0.0390 -0.0252
-0.0307 -0.0077 0.0107 0.0144 0.0531 0.0715
0.0890 0.1203 0.1498 0.2197 0.2713 0.3008
0.3532 0.3928 0.4462 0.4941 0.5346 0.5889
0.6423 0.6985 0.7427 0.8145 0.8798 0.9378
1.0179 1.1045 1.1809 1.2573 1.3429 1.4138
1.5096 1.5998 1.6679 1.7268 1.7793 1.8668
1.9349 1.9975 2.0840 2.1338 2.2046 2.2774
2.3188 2.4155 2.4735 2.5167 2.5858 2.6235
2.6806 2.7064 2.7441 2.8021 2.8242 2.8721
2.9191 2.9439 2.9826 3.0176 3.0443 3.0922
3.1207 3.1594 3.1907 3.1962 3.2192 3.2367
3.2468 3.2450 3.2358 3.2220 3.2091 3.2183
3.2192 3.1944 3.1852 3.1723 3.1594 3.1548
3.1189 3.1041 3.0793 3.0406 3.0020 2.9522
2.9255 2.8694 2.8326 2.7856 2.7193 2.6991
2.6540 2.6070 2.5739 2.5518 2.5159 2.4689
2.4505 2.4183 2.3759 2.3345 2.3014 2.2894
2.2765 2.2360 2.2203 2.2240 2.1881 2.1577
2.1660 2.1550 2.1154 2.0933 2.0804 2.0694
2.0500 2.0298 2.0077 1.9709 1.9525 1.9451
1.9184 1.8816 1.8493 1.7987 1.7702 1.7527
1.7002 1.6643 1.6486 1.6063 1.5465 1.5096
1.4599 1.4084 1.3679 1.3117 1.2565 1.1929
1.1276 1.0585 1.0217 0.9554 0.8523 0.8081
0.7280 0.6590 0.6185 0.5025 0.4233 0.3561
0.2557 0.1738 0.0919 0.0228 -0.0766 -0.1917
-0.2939 -0.3850 -0.4734 -0.5811 -0.6741 -0.7551
-0.8481 -0.9448 -1.0488 -1.1611 -1.2458 -1.3296
-1.4428 -1.5542 -1.6472 -1.7402 -1.8617 -1.9188
-1.9621 -2.0707 -2.1361 -2.2097 -2.2741 -2.3248
-2.3984 -2.4610 -2.5586 -2.6129 -2.6534 -2.7059
-2.7593 -2.8477 -2.8864 -2.9296 -2.9876 -3.0088
-3.0364 -3.0880 -3.1184 -3.1423 -3.1810 -3.2021
-3.2371 -3.2758 -3.2887 -3.2868 -3.2970 -3.3062
-3.2749 -3.2712 -3.2666 -3.2316 -3.2049 -3.1552
-3.1211 -3.0806 -3.0355 -2.9941 -2.9259 -2.8652
-2.8035 -2.7667 -2.7169 -2.6534 -2.6129 -2.5549
-2.4932 -2.4417 -2.3864 -2.3358 -2.2888 -2.2133
-2.1498 -2.1029 -2.0366 -1.9731 -1.9059 -1.8368
-1.7816 -1.7365 -1.6416 -1.5404 -1.4741 -1.4032
-1.3424 -1.2540 -1.1703 -1.0883 -0.9935 -0.9180
-0.8204 -0.7366 -0.6777 -0.5820 -0.4917 -0.4089
-0.3242 -0.2570 -0.1502 -0.0480 0.0395 0.1343
0.2310 0.3258 0.4050 0.5026 0.5900 0.6775
0.7585 0.8506 0.9500 1.0144 1.1111 1.1912
1.2722 1.3753 1.4508 1.5364 1.5954 1.6598
1.7427 1.7970 1.8605 1.9148 1.9572 2.0124
2.0695 2.1284 2.1809 2.2370 2.2684 2.2904
2.3392 2.3650 2.3807 2.4111 2.4378 2.4516
2.4506 2.4506 2.4488 2.4442 2.4212 2.3936
2.3715 2.3420 2.3070 2.2527 2.1625 2.0750
2.0041 1.9112 1.8219 1.7381 1.6644 1.5935
1.5217 1.4656 1.4011 1.3477 1.2861 1.2152
1.1268 1.0504 0.9786 0.8672 0.7815 0.6849
0.5864 0.4971 0.3958 0.3194 0.2485 0.1749
0.0782 -0.0056 -0.0884 -0.1750 -0.2551 -0.3554
-0.4410 -0.5386 -0.6574 -0.7697 -0.8719 -0.9713
-1.0597 -1.1527 -1.2438 -1.3249 -1.4234 -1.5117
-1.6185 -1.7281 -1.8312 -1.9619 -2.0614 -2.1580
-2.2713 -2.3606 -2.4720 -2.5824 -2.6892 -2.7960
-2.8770 -2.9829 -3.0971 -3.1919 -3.2830 -3.3898
-3.5058 -3.5988 -3.6872 -3.7885 -3.8796 -3.9625
-4.0739 -4.1705 -4.2469 -4.3611 -4.4522 -4.5204
-4.6051 -4.6953 -4.7837 -4.8610 -4.9466 -5.0258
-5.0847 -5.1445 -5.2219 -5.2826 -5.3149 -5.3710
-5.4226 -5.4447 -5.4861 -5.5349 -5.5653 -5.6039
-5.6168 -5.6242 -5.6619 -5.6582 -5.6573 -5.6628
-5.6408 -5.6435 -5.6426 -5.6242 -5.5809 -5.5487
-5.4971 -5.4327 -5.3903 -5.3102 -5.2338 -5.1372
-5.0359 -4.9319 -4.8168 -4.7063 -4.5746 -4.4577
-4.3445 -4.2349 -4.1300 -4.0250 -3.9385 -3.8326
-3.7258 -3.6476 -3.5619 -3.4671 -3.3686 -3.2775
-3.2029 -3.1145 -3.0261 -2.9534 -2.8613 -2.7775
-2.7076 -2.6431 -2.5815 -2.4995 -2.4388 -2.3476
-2.2703 -2.2141 -2.1331 -2.0567 -1.9619 -1.8946
-1.8201 -1.7299 -1.6599 -1.5733 -1.4813 -1.3938
-1.3054 -1.2180 -1.1296 -1.0504 -0.9768 -0.8773
-0.7733 -0.6868 -0.6002 -0.4971 -0.3958 -0.2789
-0.1684 -0.0801 0.0424 0.1658 0.2670 0.3775
0.4907 0.5957 0.7117 0.8323 0.9547 1.0698
1.1729 1.2963 1.4169 1.5522 1.6922 1.8063
1.9223 2.0586 2.1912 2.3108 2.4489 2.5631
2.6874 2.8411 2.9636 3.0814 3.2039 3.3300
3.4451 3.5390 3.6320 3.7305 3.8364 3.9339
4.0260 4.1116 4.1890 4.2488 4.3160 4.3906
4.4458 4.5020 4.5360 4.5563 4.5931 4.6263
4.6493 4.6640 4.6585 4.6502 4.6428 4.6327
4.6106 4.5766 4.5434 4.4928 4.4302 4.3685
4.2939 4.2138 4.1282 3.9947 3.8575 3.7452
3.6081 3.4663 3.3540 3.2518 3.1450 3.0216
2.9360 2.8550 2.7289 2.6497 2.5733 2.4729
2.3845 2.2704 2.1406 2.0724 1.9951 1.8846
1.8073 1.7070 1.6480 1.5781 1.4869 1.4289
1.3626 1.2927 1.2006 1.1122 1.0441 0.9686
0.8848 0.8259 0.7467 0.6602 0.5829 0.5055
0.4319 0.3656 0.2947 0.2045 0.1216 -0.0045
-0.0717 -0.0938 -0.2135 -0.3212 -0.3488 -0.4510
-0.5946 -0.6452 -0.7180 -0.7962 -0.8736 -0.9712
-1.0568 -1.1451 -1.2170 -1.2888 -1.3578 -1.4186
-1.4747 -1.5254 -1.5742 -1.6303 -1.6717 -1.6994
-1.7528 -1.8043 -1.8319 -1.8715 -1.9074 -1.9240
-1.9378 -1.9406 -1.9636 -1.9737 -1.9470 -1.9406
-1.9507 -1.9424 -1.9286 -1.9083 -1.8973 -1.8826
-1.8172 -1.8218 -1.8393 -1.7785 -1.7334 -1.6993
-1.6211 -1.5539 -1.5309 -1.4719 -1.4057 -1.3394
-1.2602 -1.2096 -1.1608 -1.0991 -1.0273 -0.9720
-0.9030 -0.8164 -0.7584 -0.6922 -0.6084 -0.5375
-0.4823 -0.4215 -0.3543 -0.2816 -0.2254 -0.1711
-0.0882 -0.0247 -0.0044 0.0508 0.1640 0.2092
0.2220 0.2893 0.3500 0.3868 0.4283 0.4890
0.5286 0.5397 0.5572 0.6060 0.6640 0.6861
0.7109 0.7422 0.7652 0.8048 0.8334 0.8656
0.9079 0.9282 0.9558 1.0046 1.0350 1.0690
1.1206 1.1731 1.2035 1.2403 1.3130 1.3406
1.3876 1.4520 1.5192 1.6049 1.5911 1.5975
1.7144 1.8046 1.7770 1.7522 1.8175 1.8866
1.9188 1.9510 2.0053 2.0164 2.0173 2.0900
2.1379 2.1416 2.1840 2.1987 2.2107 2.2521
2.2641 2.2742 2.2843 2.2981 2.3230 2.3239
2.3239 2.3469 2.3515 2.3580 2.3607 2.3580
2.3616 2.3598 2.3699 2.3331 2.3709 2.3994
2.2816 2.2742 2.3709 2.3782 2.2935 2.2199
2.2199 2.2632 2.2576 2.2438 2.2714 2.2236
2.1812 2.2309 2.2346 2.2125 2.2392 2.2355
2.2309 2.2383 2.2429 2.2576 2.2484 2.2558
2.2705 2.2724 2.2788 2.2981 2.3092 2.3147
2.3387 2.3497 2.3801 2.3819 2.3727 2.4252
2.4261 2.4418 2.4676 2.3865 2.4105 2.5071
2.5025 2.4685 2.4436 2.4685 2.5025 2.4897
2.4740 2.4805 2.4556 2.4363 2.4409 2.4059
2.3884 2.3764 2.3479 2.3396 2.3387 2.3212
2.2954 2.3000 2.2706 2.2660 2.3019 2.2549
2.2825 2.2862 2.2126 2.2853 2.3111 2.2577
2.2816 2.2669 2.2319 2.2457 2.2439 2.2429
2.2043 2.1647 2.1564 2.1398 2.1435 2.0818
2.0413 2.0644 2.0441 2.0054 1.9852 1.9649
1.9014 1.8940 1.9023 1.8452 1.8057 1.7753
1.7467 1.7173 1.6786 1.6353 1.6179 1.5893
1.5378 1.5120 1.4742 1.4632 1.4402 1.3941
1.3932 1.3849 1.3748 1.3785 1.3757 1.3757
1.3895 1.3380 1.2920 1.3196 1.3168 1.3242
1.2874 1.2275 1.2404 1.2386 1.2192 1.2367
1.2413 1.2156 1.2432 1.2542 1.2303 1.2358
1.2303 1.2321 1.2275 1.2137 1.1990 1.2018
1.2027 1.1889 1.1999 1.1981 1.1898 1.1566
1.1373 1.1217 1.0977 1.1005 1.0719 1.0406
0.9863 0.9707 0.9541 0.8703 0.8289 0.7820
0.7341 0.6825 0.5932 0.5408 0.5067 0.4487
0.3981 0.3180 0.2241 0.1670 0.1016 0.0234
-0.0567 -0.1341 -0.1921 -0.2593 -0.3375 -0.4084
-0.4913 -0.5723 -0.6542 -0.7270 -0.7969 -0.8697
-0.9396 -1.0363 -1.1210 -1.1919 -1.2674 -1.3576
-1.4441 -1.5261 -1.6089 -1.6909 -1.7783 -1.8667
-1.9606 -2.0490 -2.1300 -2.2101 -2.3344 -2.4274
-2.5111 -2.6152 -2.6649 -2.7496 -2.8416 -2.9171
-2.9981 -3.0607 -3.1187 -3.1740 -3.2311 -3.2891
-3.3590 -3.3995 -3.4382 -3.4796 -3.5017 -3.5524
-3.5763 -3.5919 -3.6361 -3.6481 -3.6527 -3.6748
-3.6730 -3.6720 -3.6656 -3.6499 -3.6444 -3.6159
-3.5919 -3.5800 -3.5597 -3.5091 -3.4658 -3.4667
-3.4327 -3.3839 -3.3332 -3.2633 -3.2117 -3.1611
-3.0994 -3.0423 -2.9861 -2.9318 -2.8849 -2.8296
-2.7652 -2.7210 -2.6897 -2.6510 -2.6096 -2.5755
-2.5323 -2.4991 -2.4807 -2.4411 -2.4080 -2.3932
-2.3702 -2.3758 -2.3886 -2.3573 -2.3592 -2.3813
-2.3831 -2.3813 -2.3831 -2.3942 -2.3914 -2.4043
-2.4153 -2.4172 -2.4209 -2.4347 -2.4402 -2.4485
-2.4881 -2.5092 -2.5074 -2.5083 -2.5304 -2.5488
-2.5599 -2.5856 -2.6133 -2.6409 -2.6713 -2.6924
-2.7145 -2.7467 -2.7725 -2.7992 -2.8130 -2.8388
-2.8554 -2.8600 -2.8904 -2.8710 -2.9115 -2.9511
-2.9272 -2.9622 -2.9447 -2.9336 -2.9640 -2.9364
-2.9217 -2.9198 -2.8701 -2.8250 -2.8047 -2.7384
-2.6897 -2.6648 -2.6151 -2.5783 -2.5423 -2.5101
-2.4908 -2.4613 -2.4079 -2.3573 -2.3260 -2.2754
-2.2312 -2.2063 -2.1640 -2.1142 -2.0728 -2.0157
-1.9623 -1.9568 -1.9292 -1.8684 -1.8252 -1.7626
-1.7110 -1.6926 -1.6226 -1.5609 -1.5057 -1.4302
-1.3869 -1.3133 -1.2562 -1.1964 -1.1181 -1.0730
-1.0012 -0.9423 -0.8971 -0.8235 -0.7489 -0.6955
-0.6523 -0.5860 -0.5114 -0.4525 -0.4018 -0.3429
-0.2886 -0.2426 -0.1827 -0.1183 -0.0630 -0.0317
-0.0244 0.0281 0.0944 0.1239 0.1460 0.1561
0.1874 0.2380 0.2813 0.3163 0.3503 0.3826
0.3918 0.4194 0.4387 0.4350 0.4406 0.4544
0.4636 0.4396 0.4360 0.4387 0.4360 0.4470
0.4433 0.4525 0.4268 0.4047 0.4222 0.4074
0.3853 0.3356 0.2905 0.2767 0.2583 0.2390
0.2031 0.1736 0.1671 0.1662 0.1616 0.1745
0.1662 0.1405 0.1377 0.1184 0.1036 0.0917
0.0696 0.0613 0.0355 0.0235 0.0263 0.0107
0.0199 0.0254 0.0180 0.0291 0.0134 0.0125
-0.0179 -0.0391 0.0088 -0.0078 -0.0391 -0.0473
-0.0501 -0.0519 -0.0657 -0.0667 -0.0786 -0.0897
-0.0878 -0.0851 -0.0980 -0.1127 -0.1145 -0.1127
-0.1155 -0.1237 -0.1422 -0.1431 -0.1403 -0.1596
-0.1578 -0.1707 -0.1781 -0.1744 -0.1873 -0.1817
-0.1836 -0.1863 -0.1771 -0.1790 -0.1863 -0.1900
-0.2038 -0.2112 -0.2268 -0.2701 -0.2784 -0.2756
-0.2959 -0.3226 -0.3253 -0.3244 -0.3557 -0.3732
-0.4064 -0.4285 -0.4377 -0.4634 -0.4791 -0.5159
-0.5279 -0.5490 -0.5767 -0.5850 -0.5960 -0.5988
-0.6135 -0.6301 -0.6706 -0.6908 -0.6816 -0.6825
-0.6789 -0.6706 -0.6669 -0.6604 -0.6255 -0.6080
-0.6061 -0.5868 -0.5730 -0.5656 -0.5407 -0.5012
-0.4809 -0.4560 -0.4441 -0.4201 -0.3603 -0.3336
-0.3106 -0.2664 -0.2323 -0.1845 -0.1237 -0.0859
-0.0307 0.0162 0.0485 0.1092 0.1636 0.2087
0.2529 0.3118 0.3762 0.4259 0.5070 0.5824
0.6478 0.7482 0.8430 0.9212 0.9866 1.0658
1.1339 1.1919 1.2932 1.3705 1.4423 1.5215
1.5924 1.6927 1.7774 1.8327 1.8870 1.9717
2.0656 2.1439 2.2111 2.2884 2.3841 2.4421
2.5084 2.6023 2.6649 2.7303 2.7902 2.8408
2.9043 2.9614 3.0139 3.0682 3.1096 3.1437
3.1649 3.1860 3.2284 3.2440 3.2450 3.2505
3.2523 3.2689 3.2348 3.2026 3.1888 3.1446
3.1207 3.0590 3.0019 2.9504 2.8786 2.8436
2.7653 2.6742 2.6180 2.5573 2.4735 2.4192
2.3768 2.2801 2.2148 2.1503 2.0684 2.0251
1.9561 1.8935 1.8502 1.7720 1.7029 1.6403
1.5795 1.5252 1.4479 1.3991 1.3383 1.2555
1.2141 1.1349 1.0456 1.0115 0.9600 0.8992
0.8173 0.7381 0.6884 0.5982 0.5245 0.4684
0.3772 0.3036 0.2308 0.1627 0.1121 0.0292
-0.0518 -0.1144 -0.2009 -0.2764 -0.3464 -0.4256
-0.5084 -0.5968 -0.6677 -0.7441 -0.8343 -0.9172
-0.9844 -1.0654 -1.1464 -1.2100 -1.2882 -1.3582
-1.4346 -1.5101 -1.5579 -1.6215 -1.6675 -1.6850
-1.7476 -1.8093 -1.8424 -1.8811 -1.9050 -1.9326
-1.9621 -1.9612 -1.9713 -1.9860 -1.9906 -1.9971
-1.9916 -1.9980 -1.9888 -1.9575 -1.9483 -1.9234
-1.9004 -1.8976 -1.8590 -1.8139 -1.7688 -1.7080
-1.6702 -1.6270 -1.5846 -1.5404 -1.4834 -1.4309
-1.3545 -1.2955 -1.2523 -1.1805 -1.1105 -1.0479
-1.0028 -0.9623 -0.8895 -0.8426 -0.8122 -0.7330
-0.6870 -0.6594 -0.6069 -0.5692 -0.5240 -0.4633
-0.4283 -0.4034 -0.3417 -0.3104 -0.2773 -0.2359
-0.2221 -0.1659 -0.1677 -0.1383 -0.0784 -0.0849
-0.0444 -0.0435 -0.0195 0.0376 0.0293 0.0458
0.0661 0.0799 0.0965 0.1011 0.1112 0.1416
0.1683 0.1895 0.2143 0.2134 0.2373 0.2742
0.2797 0.2907 0.3018 0.3239 0.3478 0.3515
0.3874 0.4252 0.4344 0.4675 0.4970 0.5402
0.5844 0.6019 0.6342 0.6811 0.7327 0.7391
0.7658 0.8339 0.8625 0.9039 0.9398 0.9757
1.0254 1.0558 1.1065 1.1396 1.1792 1.2436
1.2740 1.3182 1.3477 1.3716 1.4103 1.4296
1.4572 1.4913 1.5051 1.5300 1.5732 1.5898
1.6211 1.6275 1.6450 1.6828 1.6340 1.6515
1.7261 1.6975 1.6681 1.7049 1.7251 1.7389
1.7482 1.7169 1.7546 1.7822 1.7555 1.7749
1.7684 1.7776 1.7970 1.7841 1.8052 1.8098
1.8043 1.8154 1.8135 1.8218 1.8310 1.8209
1.8356 1.8586 1.8559 1.8522 1.8660 1.8780
1.8605 1.8596 1.8835 1.8568 1.8412 1.8633
1.8439 1.8209 1.8154 1.8172 1.8135 1.8007
1.7813 1.7721 1.7629 1.7436 1.7445 1.7132
1.6976 1.7049 1.6699 1.6653 1.6515 1.5981
1.5742 1.5576 1.5383 1.5134 1.4932 1.4619
1.4186 1.4131 1.3827 1.3339 1.3265 1.2962
1.2363 1.2271 1.2409 1.1774 1.1286 1.1295
1.1010 1.0899 1.0706 1.0421 1.0402 1.0172
0.9878 0.9684 0.9371 0.9169 0.9040 0.8708
0.8524 0.8377 0.8009 0.7852 0.7815 0.7797
0.7742 0.7364 0.7355 0.7364 0.7042 0.6913
0.6646 0.6554 0.6444 0.6177 0.6204 0.6076
0.6066 0.6149 0.6066 0.6020 0.5974 0.5864
0.5615 0.5615 0.5698 0.5578 0.5404 0.5173
0.5146 0.5183 0.4980 0.4888 0.4814 0.4603
0.4612 0.4446 0.4326 0.4133 0.3673 0.3636
0.3378 0.3249 0.3111 0.2780 0.2780 0.2504
0.2301 0.2135 0.1951 0.1758 0.1500 0.1408
0.1252 0.1095 0.0837 0.0616 0.0570 0.0276
0.0101 0.0248 0.0046 -0.0157 -0.0148 -0.0166
-0.0184 -0.0405 -0.0516 -0.0488 -0.0415 -0.0571
-0.0792 -0.0755 -0.0847 -0.0930 -0.1077 -0.1160
-0.1050 -0.1289 -0.1648 -0.1657 -0.1805 -0.2007
-0.2016 -0.2247 -0.2394 -0.2495 -0.2615 -0.2799
-0.3084 -0.3259 -0.3508 -0.3673 -0.3793 -0.4032
-0.4161 -0.4189 -0.4391 -0.4760 -0.4787 -0.4695
-0.4999 -0.5275 -0.5248 -0.5294 -0.5551 -0.5680
-0.5809 -0.6021 -0.6113 -0.6168 -0.6196 -0.6242
-0.6251 -0.6352 -0.6417 -0.6463 -0.6500 -0.6269
-0.6177 -0.6196 -0.6251 -0.6214 -0.6177 -0.6242
-0.6131 -0.6039 -0.5984 -0.6067 -0.6058 -0.5920
-0.6021 -0.6122 -0.6186 -0.6279 -0.6407 -0.6518
-0.6490 -0.6463 -0.6638 -0.6914 -0.7015 -0.7043
-0.7227 -0.7567 -0.7613 -0.7595 -0.7733 -0.7926
-0.8230 -0.8377 -0.8635 -0.8764 -0.9013 -0.9353
-0.9298 -0.9455 -0.9694 -0.9804 -0.9758 -0.9869
-1.0173 -1.0173 -1.0200 -1.0265 -1.0357 -1.0320
-1.0191 -1.0228 -1.0099 -0.9952 -1.0007 -0.9786
-0.9620 -0.9666 -0.9464 -0.9224 -0.8966 -0.8782
-0.8497 -0.8138 -0.8037 -0.7678 -0.7420 -0.7318
-0.6950 -0.6702 -0.6499 -0.6186 -0.5956 -0.5698
-0.5569 -0.5440 -0.4998 -0.4842 -0.4750 -0.4501
-0.4207 -0.3958 -0.3875 -0.3645 -0.3544 -0.3470
-0.3286 -0.3332 -0.3268 -0.3323 -0.3378 -0.3010
-0.3028 -0.3185 -0.3093 -0.3056 -0.2954 -0.2853
-0.2862 -0.2826 -0.2844 -0.2964 -0.2890 -0.2862
-0.2908 -0.2706 -0.2651 -0.2623 -0.2466 -0.2568
-0.2420 -0.2117 -0.1932 -0.1758 -0.1675 -0.1509
-0.1398 -0.1021 -0.0864 -0.0699 -0.0450 -0.0395
-0.0146 -0.0054 0.0139 0.0222 0.0369 0.0664
0.0820 0.0912 0.0940 0.1262 0.1299 0.1318
0.1649 0.1695 0.1658 0.1741 0.1621 0.1704
0.1971 0.1980 0.2027 0.2183 0.2146 0.1953
0.1962 0.2109 0.2082 0.1981 0.1898 0.1612
0.1520 0.1557 0.1391 0.1235 0.1005 0.0830
0.0498 0.0167 -0.0091 -0.0422 -0.0579 -0.1057
-0.1527 -0.2015 -0.2613 -0.2908 -0.3359 -0.3819
-0.4298 -0.4795 -0.5256 -0.5835 -0.6397 -0.6931
-0.7548 -0.8257 -0.8745 -0.9242 -0.9785 -1.0218
-1.0871 -1.1414 -1.1792 -1.2409 -1.3053 -1.3550
-1.4121 -1.4453 -1.4858 -1.5530 -1.5843 -1.6266
-1.6837 -1.7260 -1.7758 -1.8181 -1.8540 -1.8816
-1.9157 -1.9479 -1.9774 -2.0234 -2.0658 -2.0980
-2.1348 -2.1799 -2.1937 -2.2121 -2.2444 -2.2609
-2.2729 -2.2803 -2.3033 -2.3088 -2.3254 -2.3346
-2.3042 -2.3143 -2.3419 -2.3511 -2.3502 -2.3475
-2.3401 -2.3382 -2.3373 -2.3263 -2.2987 -2.2701
-2.2508 -2.2103 -2.2001 -2.1891 -2.1495 -2.1145
-2.0897 -2.0713 -2.0215 -2.0068 -1.9939 -1.9497
-1.9230 -1.8798 -1.8438 -1.8264 -1.7868 -1.7444
-1.7113 -1.6883 -1.6671 -1.6266 -1.5999 -1.5805
-1.5474 -1.5225 -1.4903 -1.4563 -1.4443 -1.4231
-1.3955 -1.3808 -1.3568 -1.3301 -1.3182 -1.3117
-1.2951 -1.2905 -1.3025 -1.3007 -1.2988 -1.2979
-1.2988 -1.3117 -1.3172 -1.3181 -1.3310 -1.3531
-1.3577 -1.3623 -1.3697 -1.3715 -1.4166 -1.4452
-1.4553 -1.4710 -1.4691 -1.5013 -1.5105 -1.5253
-1.5409 -1.5354 -1.5621 -1.5685 -1.5741 -1.5833
-1.5842 -1.5934 -1.5952 -1.6026 -1.5952 -1.5952
-1.5989 -1.5814 -1.5805 -1.5612 -1.5262 -1.5243
-1.5032 -1.4792 -1.4673 -1.4507 -1.4175 -1.3724
-1.3411 -1.3144 -1.2905 -1.2389 -1.2132 -1.1901
-1.1331 -1.0999 -1.0576 -1.0281 -0.9968 -0.9397
-0.9020 -0.8744 -0.8108 -0.7639 -0.7381 -0.6773
-0.6341 -0.5954 -0.5466 -0.5024 -0.4518 -0.3965
-0.3560 -0.3118 -0.2640 -0.2170 -0.1609 -0.1157
-0.0743 -0.0237 0.0260 0.0638 0.1144 0.1761
0.2102 0.2415 0.2847 0.3179 0.3658 0.4173
0.4422 0.4818 0.5324 0.5637 0.6060 0.6539
0.6972 0.7285 0.7570 0.8058 0.8307 0.8675
0.8988 0.9283 0.9669 0.9780 0.9955 1.0075
1.0323 1.0562 1.0747 1.1014 1.1069 1.1143
1.1069 1.1069 1.1133 1.1189 1.1364 1.1189
1.1216 1.1170 1.0922 1.0894 1.0756 1.0701
1.0415 1.0112 1.0121 0.9964 0.9578 0.9338
0.9329 0.9090 0.8758 0.8436 0.8059 0.7884
0.7561 0.7202 0.6991 0.6567 0.6190 0.6070
0.5840 0.5610 0.5462 0.5039 0.4763 0.4763
0.4468 0.4137 0.4008 0.3686 0.3446 0.3382
0.3207 0.2968 0.2839 0.2802 0.2701 0.2618
0.2553 0.2424 0.2332 0.2231 0.1983 0.1872
0.1844 0.1504 0.1384 0.1421 0.1265 0.1117
0.0979 0.0887 0.0777 0.0592 0.0408 0.0270
0.0197 -0.0034 -0.0310 -0.0254 -0.0374 -0.0632
-0.0632 -0.0687 -0.0954 -0.1157 -0.1230 -0.1460
-0.1525 -0.1580 -0.1792 -0.1958 -0.2178 -0.2280
-0.2436 -0.2482 -0.2657 -0.2887 -0.2795 -0.2758
-0.2648 -0.2712 -0.2630 -0.2427 -0.2464 -0.2399
-0.2372 -0.2270 -0.2105 -0.1976 -0.1829 -0.1562
-0.1276 -0.1110 -0.0862 -0.0567 -0.0328 -0.0171
0.0188 0.0666 0.0970 0.1256 0.1523 0.1937
0.2333 0.2674 0.3079 0.3603 0.4137 0.4542
0.4957 0.5435 0.5923 0.6356 0.7037 0.7507
0.7967 0.8713 0.9229 0.9753 1.0195 1.0821
1.1282 1.1816 1.2580 1.3022 1.3648 1.4191
1.4743 1.5526 1.6354 1.7036 1.7542 1.8168
1.8978 1.9715 2.0451 2.1133 2.1676 2.2458
2.2992 2.3729 2.4705 2.5303 2.6021 2.6564
2.7108 2.7798 2.8415 2.8995 2.9317 2.9998
3.0560 3.0689 3.1094 3.1738 3.2272 3.2429
3.2825 3.3211 3.3350 3.3699 3.3801 3.4040
3.4316 3.4261 3.4390 3.4390 3.4427 3.4519
3.4335 3.4335 3.4243 3.4031 3.3939 3.3552
3.3239 3.2945 3.2429 3.1803 3.1223 3.0652
2.9814 2.9262 2.8526 2.7550 2.6914 2.6344
2.5580 2.4990 2.4668 2.3840 2.3232 2.2845
2.2118 2.1483 2.0636 1.9816 1.9273 1.8472
1.7662 1.7119 1.6511 1.5885 1.5186 1.4624
1.4274 1.3740 1.3252 1.2672 1.2102 1.1687
1.0978 1.0426 0.9920 0.9275 0.8990 0.8741
0.8134 0.7738 0.7609 0.6882 0.6495 0.6771
0.6412 0.6007 0.5731 0.5399 0.5225 0.4976
0.4884 0.4617 0.4341 0.4120 0.3825 0.3678
0.3595 0.3595 0.3319 0.3264 0.3218 0.2960
0.3034 0.2748 0.2656 0.2555 0.2260 0.2315
0.2058 0.2039 0.1975 0.1717 0.1809 0.1515
0.1321 0.1377 0.1303 0.1257 0.1073 0.0962
0.0925 0.0852 0.0806 0.0723 0.0649 0.0622
0.0484 0.0474 0.0520 0.0530 0.0677 0.0677
0.0815 0.1156 0.1340 0.1533 0.1699 0.1920
0.1975 0.2067 0.2141 0.2141 0.2481 0.2610
0.2951 0.2969 0.2813 0.3347 0.3393 0.3568
0.3890 0.4037 0.4231 0.4065 0.4396 0.4590
0.4387 0.4544 0.4489 0.4452 0.4562 0.4535
0.4654 0.4774 0.4774 0.4682 0.4682 0.4682
0.4516 0.4443 0.4277 0.4240 0.4111 0.3789
0.3697 0.3669 0.3586 0.3485 0.3209 0.3126
0.3273 0.2979 0.3016 0.3135 0.2776 0.2721
0.2445 0.2298 0.2252 0.2086 0.2141 0.1966
0.1893 0.1975 0.1883 0.1883 0.2049 0.2049
0.1902 0.1819 0.1837 0.1883 0.1856 0.1856
0.1847 0.1957 0.1930 0.1948 0.2160 0.1976
0.2003 0.2151 0.2058 0.2123 0.2040 0.2206
0.2307 0.1948 0.1874 0.1819 0.1681 0.1718
0.1644 0.1479 0.1488 0.1607 0.1469 0.1258
0.1184 0.1129 0.1064 0.0843 0.0641 0.0401
0.0429 0.0282 -0.0178 -0.0280 -0.0584 -0.0915
-0.0887 -0.1081 -0.1467 -0.1421 -0.1523 -0.1744
-0.1964 -0.2314 -0.2379 -0.2600 -0.2655 -0.2636
-0.3069 -0.3272 -0.3373 -0.3520 -0.3520 -0.3557
-0.3511 -0.3437 -0.3474 -0.3391 -0.3391 -0.3373
-0.3078 -0.3170 -0.3198 -0.3143 -0.3097 -0.2728
-0.3170 -0.2903 -0.2213 -0.2811 -0.2498 -0.2158
-0.2305 -0.2019 -0.2139 -0.2112 -0.2360 -0.2553
-0.2250 -0.2397 -0.2673 -0.2774 -0.2719 -0.2995
-0.3225 -0.3041 -0.3235 -0.3373 -0.3520 -0.4109
-0.4284 -0.4395 -0.4864 -0.5196 -0.5426 -0.5619
-0.5996 -0.6300 -0.6512 -0.6622 -0.6880 -0.7313
-0.7515 -0.7921 -0.7884 -0.8141 -0.8804 -0.9016
-0.9173 -0.9430 -0.9918 -1.0001 -1.0240 -1.0839
-1.1078 -1.1124 -1.1281 -1.1796 -1.2183 -1.2422
-1.2873 -1.3306 -1.3610 -1.3858 -1.4282 -1.4724
-1.5009 -1.5341 -1.5617 -1.6013 -1.6556 -1.7035
-1.7394 -1.7918 -1.8397 -1.8793 -1.9253 -1.9493
-2.0017 -2.0662 -2.0837 -2.0956 -2.1435 -2.2061
-2.2347 -2.2660 -2.3249 -2.3525 -2.3626 -2.4022
-2.4455 -2.4869 -2.5072 -2.5237 -2.5541 -2.5652
-2.5836 -2.5983 -2.6176 -2.6305 -2.6425 -2.6581
-2.6673 -2.7143 -2.7069 -2.7042 -2.7244 -2.6968
-2.6959 -2.6812 -2.6738 -2.6627 -2.6333 -2.6057
-2.5808 -2.5836 -2.5412 -2.5025 -2.4712 -2.4105
-2.3810 -2.3285 -2.2669 -2.2310 -2.1748 -2.1149
-2.0542 -1.9980 -1.9409 -1.8747 -1.8295 -1.7752
-1.7126 -1.6574 -1.5985 -1.5487 -1.4889 -1.4392
-1.4042 -1.3600 -1.3029 -1.2753 -1.2422 -1.1612
-1.1179 -1.0488 -1.0267 -1.0378 -0.9411 -0.9043
-0.8923 -0.8518 -0.8426 -0.8039 -0.7653 -0.7413
-0.7054 -0.6760 -0.6732 -0.6612 -0.6226 -0.5977
-0.5646 -0.5222 -0.5056 -0.4799 -0.4513 -0.4467
-0.4302 -0.4145 -0.4016 -0.3703 -0.3418 -0.3326
-0.3160 -0.2948 -0.2736 -0.2202 -0.2175 -0.2027
-0.1392 -0.1346 -0.1024 -0.0656 -0.0582 -0.0113
0.0118 0.0237 0.0642 0.0882 0.1232 0.1618
0.1784 0.2088 0.2143 0.2327 0.2686 0.2778
0.3055 0.3257 0.3239 0.3469 0.3736 0.3856
0.4067 0.4123 0.3975 0.4141 0.4169 0.4031
0.4169 0.4113 0.3975 0.3865 0.3708 0.3672
0.3487 0.3377 0.3165 0.2797 0.2723 0.2355
0.2014 0.1849 0.1434 0.1223 0.0974 0.0615
0.0385 -0.0057 -0.0453 -0.0839 -0.1097 -0.1364
-0.1686 -0.1705 -0.2064 -0.2331 -0.2524 -0.2800
-0.2938 -0.3298 -0.3426 -0.3564 -0.3684 -0.3739
-0.4034 -0.4144 -0.4237 -0.4540 -0.4770 -0.4918
-0.5176 -0.5268 -0.5277 -0.5360 -0.5341 -0.5489
-0.5433 -0.5581 -0.5875 -0.5811 -0.5884 -0.5986
-0.6105 -0.6059 -0.6142 -0.6308 -0.6253 -0.6464
-0.6455 -0.6299 -0.6418 -0.6483 -0.6446 -0.6409
-0.6538 -0.6713 -0.6805 -0.6796 -0.6786 -0.6842
-0.6805 -0.6713 -0.6667 -0.6667 -0.6510 -0.6464
-0.6409 -0.6354 -0.6363 -0.6326 -0.6262 -0.5884
-0.5847 -0.5728 -0.5295 -0.5249 -0.5129 -0.4770
-0.4282 -0.3849 -0.3481 -0.3187 -0.2607 -0.2063
-0.1612 -0.0830 -0.0388 0.0146 0.0947 0.1628
0.2521 0.3387 0.4169 0.5072 0.5928 0.6775
0.7530 0.8303 0.9224 1.0006 1.0715 1.1507
1.2372 1.3072 1.3873 1.4582 1.4950 1.5788
1.6515 1.6930 1.7510 1.7997 1.8421 1.9019
1.9581 1.9848 2.0060 2.0244 2.0704 2.0990
2.0962 2.1109 2.1045 2.1017 2.1091 2.1165
2.1063 2.0907 2.0879 2.0566 2.0272 1.9922
1.9507 1.9139 1.8596 1.8136 1.7639 1.7114
1.6672 1.6064 1.5586 1.5309 1.4757 1.4122
1.3726 1.3523 1.3082 1.2621 1.2262 1.1719
1.1369 1.0752 1.0108 0.9970 0.9592 0.9068
0.8699 0.8368 0.8055 0.7724 0.7549 0.7125
0.6628 0.6361 0.5772 0.5450 0.5201 0.4722
0.4382 0.4023 0.3765 0.3332 