Archivo de aceleración parte de la Red Nacional de Acelerógrafos (RENAC) Ecuador
          
Evento: 201604162358
Fecha del evento UTM (aammdd):                  2016    4   16
Hora del registro UTM (hhmmss): 23   59 15.00
Estación:                                      ACHN 
Componente:                                        E
Frecuencia de muestreo (Hz):            1.000000e+02
Unidades: cm/s^2
_____________________________________________
-16.1776 -21.4547 -25.1281 -26.2734 -24.9640 -22.4157
-20.1215 -17.8877 -16.3023 -15.9199 -16.7277 -18.5617
-20.5158 -22.1260 -23.7132 -25.2547 -26.7521 -28.0413
-28.2917 -27.4545 -25.6746 -23.0301 -19.9775 -17.0799
-14.8580 -13.3029 -12.3336 -11.7229 -11.3515 -11.4240
-12.2034 -13.5367 -15.0946 -16.9753 -18.2270 -17.6896
-15.2716 -11.6092 -7.8524 -5.3490 -5.0309 -7.2930
-11.6367 -16.6966 -22.3139 -28.0239 -33.9329 -40.4571
-45.2831 -47.8846 -48.9373 -48.3807 -46.6577 -43.7454
-39.5796 -34.0512 -28.4723 -23.6839 -19.3521 -15.4385
-11.6230 -7.5864 -2.4349 3.8326 9.9231 14.1623
15.8981 15.1269 11.3444 5.0944 -2.4221 -9.8835
-15.6732 -19.0908 -21.0045 -21.7628 -21.0549 -19.6749
-18.0427 -15.3239 -10.9967 -5.5526 0.0648 4.9917
9.0107 11.3573 11.8011 11.3729 10.0634 8.2552
5.4070 0.1500 -7.0152 -14.5380 -20.8018 -25.2491
-27.8790 -29.8413 -31.6955 -32.6821 -32.2411 -29.5442
-25.7727 -21.9279 -17.7107 -13.2487 -8.2778 -2.2460
5.6042 14.3915 22.6314 29.6023 34.6538 37.8055
39.0150 38.7811 37.9476 37.0105 36.4649 36.1769
35.4846 33.5581 30.3459 26.2076 21.2441 16.0503
11.3784 7.3327 3.6556 0.6296 -1.5922 -2.5523
-1.5344 1.6759 6.7963 12.3403 17.6046 21.6017
22.9946 22.3939 20.8553 19.4000 17.7064 14.8308
10.5568 5.1320 -1.0769 -8.4337 -16.0895 -22.6624
-27.6589 -30.5529 -31.2581 -30.0907 -27.6589 -25.0190
-23.1309 -22.4725 -23.0686 -24.3349 -25.3381 -25.6049
-25.5710 -25.3803 -24.7136 -23.4647 -21.3951 -18.4782
-14.7535 -10.8554 -7.5663 -4.7484 -2.2478 0.0538
2.3838 4.4653 6.3387 7.8737 9.4518 11.5361
13.1032 14.8638 16.5263 16.8609 16.3694 15.4864
15.2342 15.6221 15.8853 14.5777 9.9662 2.1179
-7.1298 -15.9776 -24.1864 -31.6193 -37.9345 -43.4473
-48.8190 -53.4130 -56.6334 -57.6036 -55.5321 -51.3260
-44.7210 -36.0566 -26.2532 -16.0794 -6.6502 1.4210
7.8847 12.8015 15.5992 16.7564 15.2993 10.7686
5.0953 -1.2997 -6.7612 -10.6748 -13.5275 -15.4935
-16.5682 -15.6503 -14.5077 -13.5880 -11.8403 -10.0668
-8.2210 -7.2756 -7.1417 -6.6630 -6.5429 -6.8794
-7.8468 -9.3947 -11.5991 -14.4555 -15.7832 -15.4302
-14.0795 -11.7100 -8.8748 -5.6470 -3.3913 -2.3377
-1.4308 -0.2231 1.8657 4.9009 7.3189 7.1236
5.7234 4.0912 1.7245 -0.2846 -2.5147 -5.0849
-6.3806 -6.5292 -6.5136 -6.9895 -8.2989 -10.7701
-14.5600 -19.7684 -26.5310 -34.2639 -42.1810 -49.5965
-56.5353 -62.2388 -64.3965 -62.5589 -58.1079 -53.0728
-48.9758 -46.8282 -47.1721 -49.1417 -52.4538 -55.0470
-56.2446 -58.1418 -61.3118 -65.2914 -67.9818 -69.1372
-69.1803 -68.1010 -65.8700 -61.8766 -58.0088 -55.2634
-52.9224 -51.2187 -50.5282 -50.7602 -51.8083 -53.4561
-55.6788 -57.7007 -58.2803 -56.9607 -53.2369 -47.6425
-39.9372 -31.2800 -23.6802 -16.1555 -8.4988 0.4004
11.3399 22.6361 33.7993 44.5177 54.5155 63.0030
70.4864 80.4557 92.4442 105.8466 119.7085 130.0684
137.7416 142.9867 144.8949 144.4979 141.6837 136.3735
128.8617 119.2913 108.7910 99.3756 92.8742 90.2526
91.2723 96.0029 103.5799 112.5515 121.8414 130.6324
138.4587 144.3585 147.8485 148.2281 144.0788 134.6588
122.0990 109.1303 96.0726 82.1548 67.3586 53.0227
40.0374 29.1099 20.4500 15.2829 13.9019 13.0812
13.1656 15.8816 20.0484 25.1706 29.7334 31.1263
28.7284 23.1624 15.2425 5.9316 -2.9731 -9.7917
-15.2780 -19.8271 -24.7218 -32.6106 -40.3700 -46.6714
-51.5176 -53.0260 -53.9833 -54.2153 -53.4707 -53.7156
-55.9548 -60.6222 -67.5637 -77.5541 -88.5165 -99.8722
-111.3353 -121.3404 -130.0644 -136.9812 -143.0570 -148.5057
-152.3349 -153.7617 -151.5307 -145.9821 -138.4428 -129.4409
-119.1250 -106.5973 -92.2595 -80.7314 -73.9779 -71.4874
-72.9353 -76.9305 -82.5433 -87.9828 -92.4539 -96.3914
-98.9158 -100.1299 -101.9684 -104.1967 -106.0994 -107.4253
-106.9641 -103.9794 -98.0823 -91.5012 -82.9743 -71.2325
-57.0955 -42.5093 -28.0174 -10.4483 9.6316 34.6594
57.5213 84.9562 112.6561 127.9035 152.2747 173.9318
186.3421 197.4622 199.6959 198.8725 195.7933 191.9778
188.8784 186.9839 186.0789 183.3142 178.4185 168.9636
151.3303 126.9663 98.6512 66.8534 37.3709 11.7654
-10.7619 -29.2462 -45.7691 -61.4346 -76.3162 -85.8004
-88.9108 -84.0471 -70.8217 -55.9594 -39.4420 -22.7604
-7.1325 6.4341 16.8307 26.1031 31.4518 32.8346
29.9443 21.7915 8.3304 -7.1279 -21.3483 -36.7562
-49.2609 -57.8905 -65.1804 -70.9299 -73.5973 -73.9614
-74.8710 -74.8013 -74.8912 -77.2340 -81.0661 -84.3717
-86.6495 -88.7521 -89.8167 -86.9695 -80.5434 -70.4503
-57.4990 -45.5673 -34.5646 -25.7938 -19.2072 -14.2583
-12.4546 -13.9942 -18.8367 -25.8790 -34.8158 -47.6388
-62.5148 -75.4762 -86.8485 -95.5129 -102.9257 -109.0823
-113.4572 -117.1159 -118.7472 -118.8563 -116.3970 -116.9178
-116.0210 -115.9614 -113.9019 -104.1004 -99.2129 -86.1103
-71.9660 -59.9124 -41.1622 -26.9867 -11.6807 2.4233
15.1536 27.5740 33.9102 39.8183 45.3971 53.2198
66.0996 80.3173 99.3481 118.8658 135.9939 152.2225
163.1785 168.7142 170.5271 169.1351 164.4200 157.6033
148.7022 140.2799 134.8349 132.9588 135.0595 139.8856
147.9723 158.0893 169.7587 181.1749 190.7344 198.6341
203.4931 207.8634 211.2910 210.6868 206.3110 198.2856
186.4411 173.8529 163.5022 154.7277 148.9095 147.8614
146.7784 145.7157 147.7834 146.6941 147.3690 147.1003
143.1344 143.3123 142.3220 141.8369 140.6769 137.4638
132.1372 124.6748 118.9667 112.3251 104.3227 95.0860
83.4726 68.7313 51.0228 29.9086 8.1259 -13.3358
-35.0671 -56.5600 -78.5746 -98.3491 -117.0480 -132.7044
-143.3302 -151.8507 -156.5099 -155.9936 -152.1112 -147.1852
-139.2781 -131.2335 -121.6989 -111.1262 -105.4997 -98.0245
-92.3952 -89.0455 -84.6532 -82.3791 -80.6112 -82.2306
-85.7380 -90.9877 -100.5269 -113.9532 -128.2901 -136.3952
-137.6203 -136.6483 -136.9674 -139.4808 -142.1739 -146.2810
-149.0503 -149.6858 -148.8807 -143.4228 -140.3611 -137.8568
-136.0458 -138.7041 -144.1087 -154.7942 -166.5855 -179.4103
-190.9871 -198.7896 -204.2144 -204.5188 -199.7542 -189.7272
-174.4119 -158.5831 -146.8853 -137.2342 -129.0750 -120.0758
-109.1795 -100.8369 -94.3117 -90.4824 -89.9717 -89.0226
-85.3978 -81.9711 -77.2817 -69.2719 -60.9202 -50.2209
-39.5997 -28.2109 -14.7323 -1.8168 11.2042 24.1299
38.3145 52.5019 70.6588 88.4572 105.8430 122.3402
126.7692 135.7060 149.9457 161.9011 176.3893 186.6456
195.9300 204.4835 210.7235 214.9855 216.9992 218.0381
221.0440 231.2774 239.7117 244.1471 248.8108 252.3668
255.0416 253.5295 247.4023 237.8420 231.5094 234.6940
238.2409 238.3481 237.1469 232.8573 227.1638 218.5865
209.3251 204.1286 197.9106 191.8183 193.1644 197.5337
201.7326 206.9776 210.5474 212.3181 213.2240 212.9508
213.1534 213.0911 209.2526 201.7151 186.1642 153.9308
116.3350 88.0143 66.1235 48.4379 32.8576 22.3711
19.2002 18.7417 16.4053 9.6536 3.5989 -1.0419
-7.2241 -13.9290 -20.6358 -26.3338 -30.6133 -35.4549
-42.0406 -49.1903 -57.1743 -68.7740 -83.4355 -100.7616
-118.6233 -134.0450 -147.7170 -159.1571 -168.1260 -173.7214
-173.8635 -167.5685 -159.6266 -155.4031 -154.9886 -158.6015
-166.0143 -176.1275 -188.1683 -200.2567 -210.4379 -217.2968
-221.0225 -223.9210 -227.2780 -230.3710 -231.8620 -232.5323
-233.6565 -233.9132 -232.3425 -228.2959 -221.4048 -213.5895
-204.1456 -194.1909 -185.0414 -175.6351 -167.5493 -160.3364
-156.4136 -154.0964 -153.0703 -156.2164 -157.9522 -159.3240
-160.9388 -159.8183 -157.4919 -153.2537 -145.7180 -135.0765
-119.8337 -99.5155 -76.3509 -52.1273 -29.4845 -10.6270
4.6415 17.2700 27.0247 34.8484 40.2631 42.7380
42.8122 40.5400 38.5410 36.1706 34.4972 36.1816
40.9178 48.2820 55.8763 64.4629 74.0003 83.5377
92.2774 100.1312 109.9602 118.4193 126.2319 136.3938
146.4740 156.2572 164.7374 171.7733 177.7565 181.4336
182.3019 179.4639 173.6668 166.7914 159.5134 153.9584
150.1511 147.6377 147.7440 148.6794 151.0717 155.3173
158.9614 163.3005 168.1577 173.8548 179.8848 183.7664
185.9396 182.9649 178.4085 169.6532 155.8244 145.1004
129.3789 112.8212 97.0053 79.9826 67.7328 54.8741
41.9173 31.6206 24.3802 17.1545 10.5284 7.6042
5.6217 4.5920 4.9193 6.0591 6.4507 5.3934
2.5811 -2.0762 -8.3813 -15.1367 -21.4179 -27.5745
-31.9200 -36.4838 -44.3972 -53.9273 -63.1585 -71.9834
-79.4549 -85.3070 -90.2394 -94.4235 -98.4848 -103.2741
-108.7127 -114.0559 -118.8040 -121.9877 -122.8606 -121.1046
-117.8035 -113.9073 -108.9749 -103.9940 -98.1437 -91.0702
-83.6115 -74.4051 -65.5875 -57.6520 -50.3777 -45.8488
-42.7889 -42.0690 -43.9204 -47.6277 -53.0901 -59.6822
-68.1871 -77.1835 -85.8388 -93.4158 -101.3778 -110.2578
-117.9741 -127.7059 -138.9232 -152.4293 -166.8954 -180.8123
-192.0755 -198.4759 -201.7284 -196.9134 -191.5170 -174.2422
-152.9355 -142.2867 -119.1698 -94.8288 -71.6377 -49.8954
-39.3520 -25.0510 -14.7864 -15.8491 -14.3444 -10.3024
-7.7807 -3.8671 2.3857 10.9842 22.0071 35.8690
51.2282 67.6466 83.2626 96.7421 108.7902 119.4977
130.1850 140.8301 150.9718 158.0774 163.4316 166.5915
167.3911 168.9903 165.1959 159.3758 156.1719 153.4559
153.2936 154.0813 155.4338 156.3535 156.2279 156.7386
157.4053 157.7748 157.6978 154.9313 146.7317 133.7080
118.6201 103.4727 87.5577 72.1691 60.9527 54.3111
50.6955 49.7803 50.9513 53.3033 56.1377 58.1926
59.2123 58.2706 55.0401 51.2227 47.0991 42.8114
40.0935 39.7441 42.0347 46.9029 53.1979 60.8198
69.3109 76.7494 83.1361 88.8323 92.7157 94.7991
95.6500 95.2548 93.7299 90.4875 84.9884 77.2748
67.4962 56.9685 45.9502 33.9534 22.4262 13.0309
6.2159 1.8466 -0.4990 -1.5251 -1.9699 -2.6356
-3.4095 -3.1161 -1.7278 0.1190 1.9089 1.3798
-1.6407 -5.7349 -12.2399 -19.2841 -25.7066 -33.2844
-40.5899 -47.2426 -53.9089 -61.1081 -68.8868 -76.8626
-85.6462 -95.9998 -108.3899 -121.8510 -136.0540 -151.1208
-166.4782 -182.1226 -197.6653 -212.1837 -225.6375 -237.9644
-247.3725 -253.2732 -255.2795 -252.7560 -247.6953 -240.7318
-232.8092 -223.7055 -211.5052 -197.4260 -182.7398 -167.3484
-150.2120 -132.6337 -114.6033 -96.9892 -82.9210 -71.0050
-62.7036 -57.6236 -52.3382 -48.0119 -43.7416 -38.9183
-34.6929 -30.2006 -26.7767 -24.2284 -21.9470 -20.5669
-19.1897 -18.9787 -19.2447 -20.0709 -21.1015 -21.5279
-23.0950 -24.0423 -24.2550 -24.9996 -26.0568 -27.0499
-27.9981 -28.8353 -29.2103 -29.4772 -29.6193 -30.0182
-29.8513 -29.0774 -27.9898 -26.5648 -25.3994 -23.8185
-21.0905 -17.7179 -12.8974 -5.8037 -0.4843 3.8328
10.5450 17.4810 24.8773 33.5463 42.9884 53.3501
63.4414 72.7643 80.7602 86.2190 88.3656 86.0117
79.4646 69.3852 56.8310 43.2323 30.5038 21.0131
15.0895 14.7200 20.4327 31.7445 44.5729 52.0370
56.6457 58.1826 56.0900 55.6114 56.0029 56.5064
60.8005 69.0725 76.3010 81.8835 87.2781 92.4700
98.0121 101.5911 102.8418 103.0509 101.7525 98.2038
93.1595 89.3092 88.0199 90.4829 97.0603 104.7180
110.2115 112.6259 115.2934 120.2450 124.3953 126.2026
124.8730 121.3546 118.4652 117.8747 120.6540 126.2255
132.9754 140.2524 148.4988 155.3971 158.9073 157.3677
149.1856 127.4249 90.5379 58.8025 37.9184 19.7413
6.7643 -1.7277 -4.4750 -1.6691 3.4174 10.7660
19.1499 27.5832 33.3455 36.3697 36.4788 33.4684
26.7323 17.9156 10.7541 4.5453 0.1667 -3.5094
-5.4259 -5.7523 -4.9977 -4.2934 -3.2508 -5.7743
-13.4897 -14.4361 -17.9022 -26.7601 -23.1344 -16.5836
-20.5999 -21.9543 -39.6794 -59.7289 -51.5807 -56.4434
-64.6439 -64.7429 -72.1255 -78.9762 -88.2568 -94.2364
-98.1959 -102.8935 -107.4784 -112.1063 -113.4259 -111.4287
-104.9466 -93.4827 -79.2256 -63.9965 -47.1307 -31.7778
-22.6439 -19.6023 -21.5472 -26.5859 -32.4747 -37.8949
-42.2175 -44.9290 -46.3760 -47.7450 -47.5901 -46.9179
-47.2948 -48.3622 -51.0764 -53.7549 -55.9785 -55.8263
-52.0933 -49.5762 -49.0866 -49.9834 -51.7880 -52.3968
-51.3863 -48.0669 -42.4073 -36.3828 -31.0901 -26.6969
-23.8176 -21.8498 -19.8177 -17.3263 -14.7643 -13.2339
-12.7231 -12.7451 -13.5906 -15.6685 -17.7857 -19.9929
-21.7425 -22.2816 -24.0899 -28.6124 -39.8316 -56.7790
-73.8154 -87.0455 -93.0095 -99.5209 -111.8166 -121.9354
-124.8596 -123.2732 -116.8764 -108.4513 -103.5207 -98.5975
-91.4185 -83.3492 -76.7030 -68.6125 -58.4012 -48.6647
-36.5864 -22.6301 -7.6642 6.4397 17.2536 25.2771
31.1897 35.5756 38.1596 38.4173 36.6695 33.1410
28.3260 23.4807 19.4717 16.6731 15.0217 14.4055
15.5324 18.0495 21.9696 26.9304 30.9669 34.6458
36.7273 39.1976 41.7927 46.6462 56.0396 67.6164
88.0584 105.2012 124.6043 154.7452 176.0354 195.0516
214.3153 229.7333 240.7791 244.9559 244.8817 236.5721
221.1193 204.4542 189.0720 175.5174 166.0432 158.7414
150.8141 143.9937 138.0270 133.5998 132.1272 131.7448
130.4106 128.0943 124.8217 121.3922 116.8404 111.7484
105.3590 98.1497 92.0702 83.9312 77.5912 72.3351
66.3794 62.3594 58.4660 55.8388 53.3465 52.1838
51.9142 50.5305 49.6144 47.0286 45.2386 43.4533
38.6722 33.6765 26.9286 18.4411 9.3447 2.2684
-2.4081 -8.4601 -12.4288 -13.6905 -13.5356 -11.1716
-8.5390 -5.5038 -2.7364 -0.9254 0.9269 1.1736
0.6784 0.8205 0.4840 0.6041 0.9434 0.7105
0.5216 0.1081 0.3410 1.1287 1.0149 1.0819
0.3162 -1.2005 -3.0527 -6.3942 -9.5669 -12.7662
-15.5153 -17.8398 -19.7554 -20.7695 -21.8305 -23.0024
-25.6295 -29.2240 -34.2784 -41.8581 -50.8627 -61.1465
-72.0512 -83.0044 -95.6164 -110.4411 -128.1341 -147.8260
-165.9903 -183.1826 -196.4218 -205.4458 -212.6816 -215.8066
-219.7844 -225.0882 -226.7516 -226.1757 -222.4409 -215.9322
-207.7776 -198.0935 -188.0471 -176.9857 -164.2728 -149.4555
-134.4465 -116.8617 -97.2514 -71.8788 -46.7079 -23.9789
-0.3559 1.7678 4.2555 17.6983 19.7771 18.7088
16.4778 13.0548 7.1807 -0.1294 -6.6885 -14.1563
-20.0470 -25.0399 -29.1314 -29.5505 -27.2965 -23.6892
-18.5129 -14.9193 -11.5081 -8.1859 -7.2130 -7.5459
-8.1548 -8.0062 -9.0818 -9.6247 -8.7306 -8.1630
-4.8271 1.1919 6.9533 12.3982 18.4787 22.9663
26.7048 30.5011 32.7926 35.1364 36.3688 35.9213
34.0553 30.7707 27.3082 24.1135 21.5680 19.5277
17.4810 15.4197 13.4078 11.1356 8.5112 5.0506
0.8508 -3.6350 -8.9415 -14.9770 -21.5178 -28.5464
-35.5639 -42.8750 -48.9673 -53.8089 -59.7298 -64.5852
-68.7656 -73.8539 -77.3595 -76.9359 -73.3743 -68.1201
-59.6968 -49.1470 -37.1045 -25.3305 -13.6758 -1.6048
8.0115 18.9583 26.3380 28.8533 34.4753 39.5012
42.2649 44.6912 46.7086 46.6719 43.8678 39.1720
34.5954 31.0953 26.4783 22.7628 20.3181 18.1889
16.7209 15.4793 14.8154 14.3771 14.1258 14.3789
14.7567 14.6127 14.0635 13.5005 13.2960 14.0745
15.8378 18.1036 21.0160 23.7293 26.1611 28.4737
29.9280 30.6863 30.5644 30.0894 29.3219 28.9111
29.2834 30.2709 32.2131 34.2891 36.7145 40.8152
44.0677 43.1452 40.3521 35.3757 30.2379 27.5521
22.7839 15.3344 7.0844 -1.0271 -9.2909 -17.5289
-25.1444 -30.7984 -33.1330 -34.9092 -37.0173 -38.5771
-39.4097 -38.1599 -33.3577 -25.4892 -13.6043 2.3152
18.5897 32.1040 37.7589 37.9212 35.5041 31.6299
26.2445 14.8823 5.4696 -7.4010 -26.2768 -42.8474
-57.2384 -65.4609 -72.2437 -74.1565 -71.4808 -67.6451
-57.0119 -47.9632 -38.5239 -28.8930 -23.1096 -13.0954
-5.3488 0.3859 7.0679 11.7555 17.7460 24.0777
38.4192 54.0260 69.3798 95.5437 117.2723 131.1332
127.3617 141.6316 206.4120 246.8614 246.7569 243.5273
234.9078 211.7726 180.7515 153.7733 139.1430 131.6926
116.6983 101.6682 78.9759 54.5359 35.4849 17.2821
9.5557 5.4256 6.4031 10.7340 17.0712 24.8810
27.8520 32.5203 32.1278 24.1474 16.1505 8.3352
0.5372 -8.9919 -17.8214 -26.2191 -36.9999 -49.3634
-62.6797 -76.7800 -92.4189 -110.4172 -133.1462 -160.1290
-189.2282 -215.7085 -231.5345 -239.1252 -247.7557 -259.8395
-272.8890 -284.7674 -294.4094 -303.7478 -313.4283 -320.7457
-323.4920 -321.8011 -316.4451 -306.6280 -292.6763 -273.6134
-250.2911 -225.6035 -199.3836 -172.0487 -144.3351 -118.6434
-96.6562 -78.7560 -64.1808 -52.0135 -43.7461 -37.0962
-32.7662 -31.2505 -31.8988 -35.0220 -37.5024 -39.3648
-39.9782 -39.4170 -38.2882 -34.1197 -27.2011 -20.3532
-12.1280 -2.3420 6.6085 13.8379 20.5309 27.6714
32.6854 36.8200 41.2792 46.3427 54.3470 63.6671
71.9565 77.3180 76.8760 76.6349 78.9310 83.2325
91.5338 98.2479 106.0055 115.5961 121.4519 126.5961
131.0984 132.6343 132.1777 130.2621 128.4896 125.4902
120.5670 111.8585 101.1666 93.5347 86.1622 78.5339
70.7800 63.1838 56.0929 49.7474 44.4363 37.7984
31.1118 26.3197 23.3928 21.5295 20.2751 19.4828
18.2577 17.1858 16.5467 16.0533 15.7040 14.9750
14.3542 13.1942 11.2713 9.2503 7.4430 6.9396
7.9088 10.2672 14.0204 18.6667 23.0755 28.2573
34.3396 38.7337 41.9981 50.0721 61.4480 65.9815
65.3332 63.9339 62.4301 60.8575 55.2814 48.6077
41.3801 31.7831 22.5272 13.1181 4.9415 -2.1210
-10.2362 -19.8085 -28.6408 -35.8894 -42.1001 -46.7610
-52.7901 -59.5262 -63.6462 -65.7066 -65.6635 -61.8342
-58.2140 -55.0835 -51.2514 -49.2167 -47.4717 -46.1989
-44.7336 -43.6938 -43.1307 -42.1560 -41.5004 -40.5256
-39.8049 -38.8613 -38.2708 -38.2231 -37.6473 -37.2154
-37.0797 -36.8898 -35.9591 -34.6231 -33.0633 -31.0717
-28.8902 -25.5827 -22.1293 -18.8338 -15.5739 -12.6341
-9.3853 -6.5014 -3.6881 -0.4586 2.9627 6.1739
10.0078 12.9622 14.0635 15.2088 15.6783 16.0662
16.1964 16.5082 16.7833 15.0593 14.6027 16.0561
17.7186 18.8483 18.3724 18.8556 19.5864 18.9088
17.8249 16.2432 16.2872 18.2550 20.1990 21.3397
21.8862 22.3254 22.4648 22.4593 22.0503 21.6771
21.2966 20.4640 18.3256 13.0182 6.8039 2.1401
-2.0220 -7.1891 -11.1688 -13.2659 -15.3566 -19.0832
-24.0201 -28.4830 -33.3402 -36.4148 -39.5701 -40.8420
-38.6174 -34.9834 -30.8974 -26.9434 -20.6402 -18.3459
-16.3506 -10.9670 -7.7228 -5.0645 -2.5823 -0.2055
0.7674 1.1067 1.8137 2.1667 3.0819 2.7765
1.4377 0.3713 -1.2792 -2.8849 -5.0709 -7.7136
-9.8868 -12.1343 -15.2841 -19.4023 -24.3521 -30.8882
-38.1342 -45.9403 -54.7799 -63.9588 -75.1028 -89.1966
-94.1895 -105.6269 -124.7678 -120.1517 -121.2191 -136.8727
-142.4837 -143.0320 -137.5559 -128.3036 -118.8799 -107.3096
-95.4174 -86.5347 -80.3955 -71.0828 -66.1091 -66.8317
-61.2262 -59.6252 -63.8103 -67.0160 -72.7370 -78.5240
-83.5554 -84.8153 -80.4166 -75.4668 -71.1231 -65.0546
-58.3552 -52.4096 -46.7427 -40.6769 -33.7107 -26.4143
-18.9153 -12.0481 -6.9883 -3.6817 -2.1962 -2.3127
-3.7523 -5.8723 -8.0722 -9.9382 -10.7625 -10.1583
-8.3848 -5.8898 -3.0178 -0.1844 3.0058 5.8319
7.4192 9.1394 10.8927 11.9820 13.7316 15.8406
17.4774 21.0609 25.8640 30.1096 35.7169 40.7740
46.7481 55.0256 62.0193 70.4582 80.6522 90.8516
103.5920 118.4305 133.6375 151.3323 172.2787 191.9716
210.5091 228.9494 246.4800 262.1172 274.3780 287.7337
299.4443 306.7113 312.5332 314.9549 314.6202 313.5116
310.4452 303.9081 296.6485 288.0546 275.1638 259.7468
243.1239 226.2581 207.9627 188.6916 170.8198 154.2566
138.7689 124.0909 110.5995 97.4511 84.6355 72.6424
61.6700 53.1155 45.4451 38.3046 32.6680 27.8906
22.8711 17.7158 13.3006 8.4113 3.9438 0.5951
-2.3484 -5.1653 -8.2216 -10.2765 -11.7923 -13.1788
-13.4181 -14.7890 -16.6146 -16.9072 -18.3010 -19.9176
-21.5865 -24.0348 -27.0223 -30.3921 -33.2595 -37.1282
-41.3692 -45.8752 -51.2101 -56.1535 -61.7828 -68.7408
-75.0881 -82.5000 -91.7568 -100.8045 -111.0810 -122.1874
-132.9646 -143.9646 -154.2832 -163.9371 -172.8675 -181.0359
-189.6297 -197.7394 -206.3278 -215.8854 -224.6718 -233.3344
-241.6596 -249.5263 -256.1890 -261.4882 -266.2216 -269.9161
-272.6890 -273.9939 -274.8127 -274.4083 -272.5240 -269.1009
-265.4165 -260.2475 -252.7568 -245.1395 -233.4949 -222.7929
-201.8585 -181.2761 -173.7918 -152.1669 -129.5388 -113.4303
-95.2633 -79.3575 -63.7277 -51.2633 -40.0249 -30.7846
-24.6592 -18.3587 -13.3282 -10.1353 -6.9819 -3.8752
-1.1985 1.5882 5.5000 8.7827 11.8747 16.3266
19.9533 24.0219 28.6535 31.4273 34.4093 37.2831
38.3651 39.9212 42.2944 44.0128 45.8962 49.0864
51.2523 55.2246 61.6021 66.7775 73.0835 80.4991
89.0590 99.4941 110.6005 119.8481 126.6603 133.1048
139.2247 144.3707 152.3254 160.4526 167.2812 179.8401
190.2064 196.7536 206.7972 218.0640 226.8028 232.7906
240.5390 249.6583 255.7158 259.5240 264.3179 267.5099
269.6510 271.8628 271.9737 271.1035 267.7685 265.5797
263.4275 254.6182 243.5348 231.5518 216.9215 201.4990
184.6157 165.8379 147.1766 129.8193 113.6971 98.5295
84.4549 71.4357 59.4472 49.4147 41.1656 34.4689
28.0345 21.7781 17.6737 14.6119 11.1669 7.9602
5.9025 3.9283 2.3172 0.6144 -1.1178 -1.6772
-2.6409 -2.7592 -2.5263 -2.3328 -2.0109 -1.6781
-1.1398 -0.7776 0.0064 -0.1568 -0.2027 -0.7208
-1.9202 -3.1095 -4.9938 -7.3468 -9.7355 -12.0279
-15.0301 -17.4225 -20.4916 -23.9183 -27.2469 -30.9533
-34.8587 -40.2037 -45.7193 -52.5700 -60.9328 -70.0658
-80.2781 -91.7036 -105.0574 -119.4456 -132.5510 -139.6181
-139.7410 -140.6002 -146.2762 -155.4038 -165.7839 -178.4051
-190.1826 -197.2442 -203.9629 -206.8275 -211.4188 -211.0172
-210.7228 -205.4484 -186.1819 -195.9247 -198.9782 -178.6334
-170.2862 -159.2000 -144.6110 -127.3463 -110.9481 -96.1821
-83.4041 -74.4553 -65.4681 -58.9439 -53.6951 -49.9841
-47.2946 -45.7165 -43.7588 -41.8533 -39.2446 -32.9239
-27.4239 -21.4535 -14.9576 -8.8369 -1.6707 4.1245
9.7300 14.0012 17.4931 20.1844 21.5883 23.4726
24.4694 25.0957 25.4120 26.1034 27.5348 28.8571
29.5338 30.5627 32.2517 33.0064 34.5735 36.9118
38.5229 40.1276 42.3558 45.0150 47.9558 51.2385
53.8143 56.9228 61.4573 66.1146 71.3046 76.8514
82.8630 90.2071 98.8880 108.4374 118.5992 128.6575
135.5559 137.4238 137.1221 136.2418 136.3482 138.3591
140.9440 146.6329 152.1164 156.9589 162.8083 167.3170
171.3389 173.7606 176.4171 179.1735 182.0665 184.2792
184.3103 181.1936 175.4680 169.0941 158.2518 145.5454
132.0925 118.0106 104.8639 91.0131 78.1792 66.7950
57.0283 49.0130 42.8895 39.3702 37.1649 35.5647
33.9509 32.2710 30.8460 28.6526 26.2529 23.4855
20.4283 17.7773 14.7660 11.5227 8.3756 5.6128
3.0884 0.5667 -1.6469 -3.8770 -5.9823 -7.7832
-9.5136 -10.4626 -11.2907 -12.2186 -12.7734 -13.7261
-14.9338 -16.2524 -17.6132 -19.1409 -20.7721 -22.2641
-24.2640 -26.3574 -28.1657 -30.3572 -32.6194 -34.7239
-36.9475 -39.4729 -42.4613 -45.0985 -48.1713 -51.9281
-55.7234 -60.1460 -64.4374 -68.9507 -72.8314 -76.0793
-79.5280 -82.4082 -85.7882 -88.7087 -91.3166 -94.9120
-98.6083 -101.9718 -104.4320 -106.3659 -107.9715 -109.2003
-109.7184 -109.8037 -110.1118 -109.9009 -110.2704 -108.6895
-108.8803 -112.1997 -110.1411 -106.3595 -101.8957 -95.0212
-86.5502 -76.7111 -66.9609 -56.1929 -47.3597 -39.7745
-32.2700 -26.2474 -21.0509 -17.2959 -14.5780 -12.7074
-11.5969 -11.1568 -11.0963 -10.6488 -10.5002 -10.5938
-10.5103 -10.6497 -10.7267 -10.8991 -11.1155 -11.1027
-11.0715 -10.8945 -10.8725 -10.8175 -10.5956 -10.7230
-10.9385 -11.1595 -11.1870 -10.9064 -10.7955 -10.3764
-9.7740 -9.0578 -7.8850 -6.8571 -5.5376 -3.9439
-2.3933 -0.5199 1.1251 2.7839 4.7472 6.5151
7.9694 9.0579 10.1903 11.2485 11.9949 12.5029
12.5442 12.0692 11.3833 10.3407 8.6654 7.1579
5.6302 3.5230 1.0307 -1.3213 -3.5487 -5.3808
-6.7617 -7.9419 -8.4013 -8.7726 -8.5636 -7.8850
-7.7255 -7.3651 -6.6471 -6.2849 -5.2799 -3.6945
-2.1594 0.0523 2.1421 4.5922 7.5797 10.6809
14.1104 17.5105 21.1967 24.4016 26.7582 29.5879
31.8226 33.4301 35.2273 36.3552 37.8132 39.8654
41.6498 43.3361 45.3388 46.7041 47.7834 48.8801
49.0864 49.1176 48.9461 48.4977 47.8494 47.0397
45.9146 44.4823 43.0509 41.4068 39.7012 37.8856
36.2708 34.9843 33.7923 32.5186 31.4787 30.8910
30.3252 30.1152 29.9575 29.5751 29.2734 28.9827
28.9030 29.0900 29.4119 29.9630 30.6947 31.4907
32.3425 33.1119 33.7244 34.2911 34.8413 35.3658
35.8334 35.9591 36.1956 36.5285 36.6019 36.4176
35.7161 35.0008 33.8161 31.6080 28.8269 26.0805
24.2970 23.6551 23.6652 23.9183 24.4868 25.3231
26.2447 27.3313 28.4793 29.5586 30.4536 31.0203
31.3394 31.0835 30.1317 28.8865 27.2258 25.1489
22.8335 20.4788 18.1166 15.8123 13.5336 11.0532
8.3481 5.5055 2.7959 0.0982 -2.5757 -5.1102
-7.3376 -9.1889 -10.9312 -12.4268 -13.5702 -14.4918
-15.1116 -15.5564 -15.9415 -15.8287 -15.6380 -15.6316
-15.5894 -15.7939 -16.1396 -16.6586 -17.4408 -18.3302
-19.2087 -20.2118 -21.3544 -22.3906 -23.3708 -24.5216
-26.1630 -28.2583 -31.1311 -34.9540 -39.7470 -46.3822
-55.1439 -65.9137 -76.0325 -80.2808 -75.8702 -67.0407
-63.6057 -67.2571 -71.1368 -72.9221 -74.3920 -75.8381
-76.2654 -76.5249 -77.9214 -79.6747 -81.2941 -82.9382
-84.3522 -85.2068 -85.4690 -85.7065 -85.7735 -85.3113
-84.2687 -82.2853 -79.5683 -76.4057 -73.0019 -69.8512
-66.9911 -64.2375 -61.8827 -59.6691 -57.2786 -54.7166
-52.5305 -51.0138 -49.8722 -49.0396 -48.0942 -47.7751
-47.2111 -45.7825 -44.3190 -42.3457 -40.5750 -38.8924
-37.2116 -35.9425 -34.7073 -33.8004 -33.3080 -33.4015
-34.0994 -35.6115 -37.8745 -40.2211 -42.5869 -44.8729
-47.1928 -49.4779 -51.7116 -53.7418 -55.1870 -55.9022
-55.6812 -54.4671 -52.3104 -49.0552 -45.0095 -41.0097
-36.7054 -32.8064 -29.7483 -26.9268 -24.4675 -23.1150
-21.9834 -21.5066 -23.0939 -24.2612 -26.8076 -29.5631
-31.6749 -35.1970 -37.2070 -39.2399 -40.8006 -41.0775
-41.3728 -40.3210 -38.7594 -37.1254 -35.1731 -33.0247
-30.7616 -28.9817 -27.3101 -25.5752 -24.2456 -23.2021
-22.4621 -22.0925 -21.8064 -21.6102 -21.6460 -21.8514
-22.1457 -22.4813 -23.0333 -23.8999 -24.9691 -26.1428
-27.4678 -28.9817 -30.2958 -31.3512 -32.2920 -33.0063
-33.5116 -33.8334 -34.0260 -34.0590 -33.7867 -33.2943
-32.7505 -31.9326 -30.9927 -30.1949 -29.4393 -28.3710
-27.0579 -26.0704 -24.7279 -22.6060 -20.5603 -18.1844
-14.5569 -11.1045 -7.0157 -2.0870 1.9285 7.1268
12.3342 17.5674 23.2691 27.3313 33.3897 39.3418
44.9738 52.6324 58.8485 66.8766 77.2485 88.2879
98.9101 107.3380 114.1392 119.3283 124.1103 127.6865
131.4250 136.6499 141.8748 147.0438 151.3609 154.8986
158.5958 161.7006 163.6428 165.2420 165.8756 165.0632
162.9670 159.5549 154.9279 148.9337 141.5823 133.1489
124.0718 114.0475 104.3102 94.9213 85.9671 78.9797
73.2422 68.3759 64.5420 61.4986 58.6074 56.3883
54.5195 52.1675 50.3464 48.3850 46.0284 43.6103
40.6778 37.4629 33.7153 29.8576 26.2108 22.4668
18.8842 15.5354 12.6607 10.0501 7.6944 5.7394
4.0439 2.6043 1.2655 0.2211 -0.5850 -1.3139
-2.0787 -2.7077 -3.0516 -3.2066 -3.1341 -3.1965
-3.3423 -3.5779 -4.0575 -4.2785 -4.5316 -5.2450
-5.5614 -5.6439 -5.8970 -5.7567 -5.6090 -5.4926
-5.5439 -5.6356 -5.9309 -6.4242 -6.2115 -6.4884
-6.7901 -6.9056 -7.6016 -8.2151 -9.1742 -10.5451
-12.3369 -14.3047 -16.3532 -18.3641 -20.3924 -22.7023
-24.6454 -26.5435 -28.5379 -30.3508 -32.1352 -33.6610
-34.9109 -36.1268 -37.0804 -37.7645 -38.1909 -38.3743
-38.2596 -37.4444 -36.4477 -35.3693 -34.0663 -32.8477
-31.2375 -29.2843 -27.2340 -24.8874 -22.5152 -20.1183
-17.4930 -14.9713 -12.8678 -11.0513 -9.3814 -8.0528
-7.0588 -6.3444 -6.0363 -5.9336 -5.9116 -5.9052
-5.8163 -5.7200 -5.4917 -5.1047 -4.6242 -4.0126
-3.2818 -2.4464 -1.5478 -0.5208 0.5182 1.5800
2.6382 3.5093 4.4492 5.3002 6.0044 6.7050
7.2698 7.8118 8.2822 8.6150 8.9341 9.1762
9.1982 9.0671 8.6086 7.6660 6.3785 4.5565
2.2100 -0.2750 -3.0974 -6.4040 -9.8968 -13.2960
-15.7113 -17.3499 -19.4846 -21.9256 -24.9645 -29.3733
-34.3836 -39.6883 -45.3964 -51.4686 -58.2148 -65.5588
-73.5511 -81.8800 -90.0291 -97.8518 -104.7153 -110.5995
-115.6016 -119.5739 -123.1501 -126.4328 -129.2599 -131.7210
-133.8640 -135.6081 -137.1247 -138.4067 -139.1503 -139.7445
-140.0049 -139.8582 -139.2319 -137.7519 -135.5906 -132.6279
-128.8555 -124.1725 -118.4855 -111.8732 -104.9069 -97.1870
-88.6811 -80.3569 -71.2137 -62.0358 -53.4474 -45.1158
-37.7663 -31.2035 -25.9328 -21.6881 -17.8763 -14.6980
-12.1993 -10.5698 -9.5648 -8.9220 -8.6680 -8.6304
-8.6497 -8.5800 -8.4571 -8.4690 -8.4562 -8.3343
-7.8840 -7.5998 -7.7776 -7.6502 -7.4686 -7.4420
-7.3769 -7.1816 -6.6938 -6.2179 -5.7447 -5.1212
-4.5903 -4.0731 -3.4560 -2.9370 -2.1805 -1.2809
-0.3107 0.8492 1.9606 3.2865 4.7335 6.4217
8.2153 9.8264 11.6172 13.4979 15.2640 17.0218
18.9988 21.2390 23.4333 25.6148 28.0769 30.8342
33.6612 36.2957 39.3721 42.5192 45.3178 48.0797
50.8590 54.8020 59.7610 65.2399 71.4267 78.2746
82.0095 84.4422 91.3937 97.9519 104.2845 111.0774
113.6551 117.7778 127.7186 135.7110 141.4228 149.0428
155.3672 161.2706 167.6161 174.6566 181.5962 188.1379
194.2486 197.9871 200.3547 200.0778 197.5864 193.8974
188.4102 180.2840 170.1047 159.7008 147.7884 133.9916
118.3784 101.9279 86.7016 73.1038 61.5601 51.9658
43.7121 36.6634 31.4944 27.9347 24.7473 22.8336
21.4444 19.3611 17.6518 15.8041 13.1550 10.2280
7.4551 4.5767 1.7497 -0.9765 -3.2496 -4.9488
-6.8304 -7.9344 -8.4498 -8.6974 -8.2022 -7.6309
-6.9945 -6.2426 -5.4604 -4.6902 -3.7576 -2.9837
-2.9846 -2.4840 -1.6880 -1.2607 -0.4749 0.0203
0.4705 0.9923 1.2545 1.5636 1.8497 2.2504
2.5924 2.8904 3.4709 4.0293 4.3796 4.8106
5.1883 5.5570 5.7963 6.0274 6.6152 7.1122
7.6926 8.3226 8.8480 9.5421 10.0474 10.3555
10.8956 11.5402 11.8135 11.8804 11.6988 11.0010
10.2225 9.3239 8.0273 6.5253 5.1031 3.8019
2.2724 -0.0659 -3.6577 -8.3076 -13.1428 -17.5140
-21.3479 -24.5582 -27.6539 -30.8688 -32.7495 -31.9141
-28.8120 -26.6324 -27.7309 -30.5891 -33.9040 -37.1207
-40.2943 -43.8119 -47.6154 -52.2755 -57.3216 -62.3292
-67.3303 -71.8987 -75.5657 -78.0057 -79.4499 -80.3853
-81.1830 -81.2298 -80.3761 -79.6453 -78.9080 -77.7132
-76.3313 -75.3621 -74.1581 -72.4865 -71.1834 -68.7434
-65.6816 -63.0655 -59.5187 -55.9966 -52.9064 -49.5227
-46.5518 -43.9668 -41.6450 -39.9844 -39.0188 -38.5769
-38.6209 -39.0463 -40.0211 -41.6643 -43.2809 -44.5683
-46.0071 -47.3559 -48.1216 -48.8048 -49.2623 -49.2614
-48.9982 -48.5453 -48.0840 -47.6310 -47.4458 -47.4045
-47.4504 -47.9483 -48.5810 -48.9395 -49.5512 -50.5140
-51.0119 -51.3356 -51.6950 -51.6767 -51.6382 -51.6254
-51.4227 -50.9422 -50.5488 -49.9418 -48.3976 -47.4238
-46.5554 -44.8269 -43.6312 -41.7826 -39.4406 -37.2041
-34.4679 -31.7766 -28.8643 -26.2225 -23.2653 -20.8793
-18.9766 -16.2110 -14.3716 -12.5266 -10.3763 -8.3966
-6.6076 -5.5420 -3.9410 -2.5234 -0.9398 1.2876
2.4613 3.5195 5.1645 6.6262 7.8723 9.2735
10.7966 12.4425 13.8675 15.1751 17.0145 18.3368
19.3528 20.8530 22.3018 23.2857 24.2825 25.8743
27.2186 28.4070 29.7265 30.7810 32.4518 34.4563
36.3406 38.4368 40.3276 42.8796 45.8643 48.1567
50.6436 53.8851 56.5489 59.1384 62.4120 64.6356
67.2105 70.1906 72.4812 75.7191 78.3554 80.1719
82.9998 85.8397 88.0422 90.5006 92.9251 94.8343
97.3770 99.5777 101.4869 103.5574 105.1062 107.1519
109.0895 110.7336 111.5231 111.8817 112.7702 113.6074
114.0576 113.4790 112.7051 111.2380 108.6154 105.5133
101.2971 94.8159 84.9741 72.6793 61.3602 53.2368
46.9821 41.7746 38.2333 35.7510 33.5540 31.7430
30.4372 29.9173 29.4193 28.4052 27.3846 25.9890
24.7978 23.6002 21.3362 18.6486 15.7831 12.8882
10.3060 7.8669 5.7597 3.9734 2.8391 1.9496
1.0272 0.6824 0.0790 -0.7848 -1.7348 -2.9497
-4.2087 -5.5704 -6.9248 -8.2168 -9.3099 -10.2864
-11.0934 -11.7829 -12.4101 -12.9484 -13.3601 -13.6325
-13.8534 -13.8333 -13.9571 -14.0919 -14.1194 -14.3981
-14.5513 -15.0373 -15.5315 -15.8424 -16.5979 -16.8868
-17.1004 -17.3526 -17.2536 -17.1417 -16.8850 -16.8061
-16.5521 -16.2862 -16.0964 -15.5737 -15.0574 -14.3688
-13.4078 -12.3799 -11.2685 -9.9453 -8.6120 -7.3200
-6.0115 -4.8103 -3.7218 -2.9250 -2.3775 -1.9291
-1.5156 -1.2515 -1.0461 -0.7728 -0.5326 -0.2190
0.1240 0.5586 1.1574 1.8396 2.6181 3.4324
4.2017 4.9656 5.6845 6.1558 6.5895 7.0663
7.3103 7.7238 8.3061 8.7554 9.4138 10.1015
10.8718 12.3875 13.4072 13.5888 14.3480 15.3365
16.0967 16.4057 16.4406 16.4479 16.3388 16.0866
15.1366 14.1353 13.8244 12.6406 11.2606 10.1428
8.0466 6.8050 5.5249 3.1738 0.9520 -1.1946
-3.1790 -5.6117 -8.2737 -10.7376 -13.8039 -16.9555
-19.9036 -23.2102 -26.4343 -29.5951 -33.1859 -37.0363
-40.6143 -44.0346 -47.6117 -51.2044 -54.4523 -57.2895
-59.8047 -62.2228 -64.7206 -67.1597 -69.6640 -71.8821
-74.0590 -76.3973 -78.2202 -79.6947 -80.9262 -82.0715
-83.1783 -83.7615 -84.2237 -84.6097 -84.5006 -84.1329
-83.2058 -81.6231 -79.6764 -76.9612 -73.5189 -69.8565
-66.0951 -62.0715 -57.8314 -53.4180 -48.6873 -44.1061
-39.8597 -36.0065 -32.8980 -30.4259 -28.6607 -27.4008
-26.4691 -25.8346 -25.2486 -24.8351 -24.3518 -23.4202
-22.3794 -21.2690 -19.8568 -18.3521 -16.6318 -14.8117
-13.0905 -11.3217 -9.6005 -7.9325 -6.2095 -4.6177
-3.1450 -1.5623 -0.0989 1.4545 3.1903 4.8702
6.6060 8.4033 10.2198 12.0483 13.9547 15.8904
17.7784 19.5207 21.1923 22.7933 24.1074 25.3425
26.5089 27.5680 28.5363 29.3974 30.3648 31.2671
32.2143 33.0176 33.5522 34.1445 34.5150 34.8616
35.1055 35.1257 35.0954 34.9414 34.7112 34.4499
34.1170 33.4852 32.8993 32.3711 31.6696 30.9654
30.2575 29.5854 28.8665 28.3768 28.1475 27.5809
27.1820 26.9179 26.2146 26.2943 26.1724 25.4269
25.5030 25.4076 25.2976 25.3453 25.1151 25.4232
25.8643 25.3508 25.1527 25.4324 25.2242 24.9886
24.4467 23.8855 23.1977 22.4513 21.9626 21.1795
20.2066 19.5280 18.8183 17.7353 17.1723 16.8789
16.2269 15.6722 15.1559 14.5030 13.4696 12.5132
11.9758 11.0754 10.0053 8.6463 7.1352 6.0311
4.8491 3.3820 1.8286 0.4578 -0.9975 -2.5462
-3.8566 -5.1266 -6.3452 -7.3723 -8.2773 -9.1869
-9.9279 -10.3818 -10.8237 -11.1722 -11.4555 -11.6224
-11.6921 -11.8003 -11.9397 -12.2047 -12.3202 -12.4789
-12.5843 -12.7558 -13.0630 -13.1107 -13.0813 -13.0034
-12.9383 -12.7246 -12.6971 -12.8713 -13.0345 -13.3161
-13.5646 -14.0194 -14.6374 -15.2325 -15.7543 -16.1825
-16.5401 -16.8950 -17.2398 -17.6588 -17.8899 -18.1833
-18.6923 -18.8032 -18.9921 -19.2910 -19.5010 -19.6954
-19.8119 -19.9421 -20.0503 -20.2043 -20.2429 -20.0365
-19.5258 -18.7445 -17.9165 -16.9518 -15.7983 -14.6154
-13.4050 -12.1387 -10.8045 -9.3336 -7.7207 -6.1252
-4.5828 -3.1478 -1.8191 -0.6426 0.2478 1.2702
2.2688 3.1262 4.0330 4.7391 5.5396 6.3191
6.8702 7.4680 7.9733 8.4327 8.8279 8.9563
9.1112 9.2662 9.1287 8.8591 8.5803 8.2566
7.9219 7.6358 7.3708 7.2406 7.2773 7.2727
7.4066 7.5771 7.6945 7.8981 8.0421 8.3758
8.6949 8.8829 9.2259 9.4945 9.7540 9.9466
10.0255 10.0676 9.9934 9.8301 9.4789 9.0260
8.3740 7.4194 6.3548 5.0738 3.5370 1.8296
-0.0374 -2.0153 -4.1161 -6.1875 -8.2672 -10.4019
-12.4614 -14.4751 -16.3274 -17.9871 -19.5028 -20.9452
-22.3821 -23.7998 -25.2623 -26.7093 -28.1306 -29.6418
-31.2043 -32.7696 -34.3046 -35.7974 -37.2077 -38.5218
-39.6579 -40.5831 -41.5349 -42.1740 -42.5555 -42.9040
-42.9076 -42.7627 -42.4299 -41.5909 -40.2136 -39.0591
-37.8129 -36.1505 -34.9566 -33.7746 -32.9466 -32.6430
-32.2579 -31.9040 -31.4602 -30.8724 -30.0003 -28.9752
-27.8766 -26.6396 -25.3183 -23.9520 -22.5747 -21.0626
-19.5505 -17.9715 -16.4182 -15.0152 -13.5013 -12.1781
-10.8540 -9.4290 -8.0664 -6.7340 -5.5309 -3.9794
-2.6727 -1.6852 -0.3354 0.8072 1.8039 3.1491
4.1890 5.0949 6.2283 6.7546 7.9724 8.8738
8.8958 10.3235 10.7664 10.7187 11.8933 12.4307
13.0909 13.9960 14.7204 15.5961 16.4186 17.7051
18.6771 19.2135 20.3928 21.3272 21.9828 22.9529
23.8846 24.8107 25.5452 26.2650 27.3407 28.1613
28.7115 29.3571 29.9815 30.5482 30.8517 31.3506
31.7760 31.8430 32.2244 32.5188 32.7233 32.9993
33.1634 33.3367 33.3872 33.4238 33.4348 33.2313
32.9883 32.6527 32.1768 31.5853 30.8582 30.0155
29.0361 28.0009 26.8116 25.6388 24.4733 23.1510
21.9406 20.9200 19.9416 18.9834 18.1388 17.2962
16.3975 15.4283 14.3435 13.2587 12.1455 10.8636
9.5322 8.2860 7.0572 5.8037 4.5603 3.3646
2.2413 1.2070 0.2808 -0.4610 -1.0259 -1.5128
-1.8658 -2.1051 -2.4050 -2.6260 -2.9396 -3.3742
-3.7529 -4.3499 -4.9166 -5.4548 -6.1150 -6.7340
-7.2915 -7.7564 -8.1947 -8.5432 -8.8238 -8.9998
-9.0741 -9.1429 -9.0759 -8.9549 -8.8485 -8.7293
-8.5753 -8.4698 -8.3983 -8.1828 -7.9563 -7.7060
-7.3419 -6.9477 -6.4937 -5.9628 -5.4594 -4.9633
-4.4241 -3.9079 -3.4916 -3.1431 -2.8570 -2.6691
-2.5150 -2.3903 -2.1427 -1.9098 -1.7677 -1.4807
-1.2092 -0.8525 -0.3574 0.1846 0.8815 1.6270
2.4330 3.3289 4.3063 5.3297 6.3420 7.3434
8.3153 9.3103 10.2877 11.2680 12.2326 13.0506
13.7988 14.5517 15.2476 15.9106 16.4993 17.1082
17.7877 18.3901 19.0632 19.6986 20.1443 20.5303
20.8302 21.1209 21.2795 21.3088 21.3198 21.1594
20.9686 20.6789 20.3625 20.0572 19.4886 18.9907
18.5359 17.9711 17.4090 16.7955 16.2554 15.7217
15.1110 14.4921 13.8704 13.1771 12.4362 11.5990
10.7682 9.9375 9.0122 8.2347 7.4947 6.7648
6.0092 5.4627 5.0509 4.5475 4.1220 3.5737
3.1675 2.7392 2.1313 1.5509 0.9988 0.5404
0.0397 -0.3766 -0.6517 -0.8855 -1.1038 -1.2615
-1.3239 -1.3706 -1.3266 -1.2083 -1.0488 -0.7581
-0.4637 -0.1446 0.2102 0.4377 0.6183 0.8081
1.0144 1.2455 1.5243 1.8736 2.2624 2.6466
2.9933 3.3454 3.6434 3.8598 3.9753 4.0166
4.0093 3.9442 3.8910 3.8029 3.6764 3.5049
3.2683 3.0373 2.8025 2.5311 2.3138 2.0855
1.8452 1.7242 1.6178 1.5463 1.5894 1.6361
1.7159 1.8746 2.0130 2.1616 2.3294 2.4926
2.7585 3.0519 3.3793 3.8598 4.3293 4.7969
5.3444 5.8689 6.4136 6.9637 7.4745 7.9724
8.5217 9.1260 9.7312 10.3565 10.9773 11.6000
12.1217 12.5362 12.9039 13.2019 13.4229 13.4467
13.3917 13.2808 13.0799 12.8388 12.4839 12.1336
11.8026 11.5468 11.4156 11.3239 11.2873 11.2790
11.3093 11.4120 11.5908 11.8604 12.1520 12.3895
12.6435 12.8654 12.9323 12.9397 12.8470 12.6343
12.3335 11.9512 11.6174 11.1772 10.7967 10.5335
10.1557 9.9916 9.7972 9.6606 9.6734 9.3130
9.3066 9.1581 8.7977 9.0526 8.7408 8.4236
8.3896 7.8285 7.6909 7.4296 6.6703 6.2384
5.8020 5.0418 3.8873 3.1253 2.3037 1.2162
0.2112 -1.7209 -3.1477 -5.2962 -7.5317 -9.3308
-12.8621 -15.3535 -18.9957 -23.1817 -26.4314 -30.6266
-34.7924 -39.6743 -44.0831 -49.0155 -54.2606 -59.2801
-65.0497 -70.3800 -76.0267 -81.5194 -86.5196 -91.4172
-96.0222 -100.5566 -104.8105 -108.5205 -111.1862 -112.6726
-113.9334 -114.7569 -114.7633 -114.5295 -113.6840 -111.9940
-109.4907 -106.5857 -103.2030 -98.5870 -93.0677 -87.1634
-80.4346 -72.7284 -64.8195 -57.2077 -50.5991 -45.1762
-40.7160 -37.2691 -34.4347 -32.0699 -30.0085 -28.1746
-26.5635 -25.1201 -23.8272 -22.3848 -20.7682 -18.9242
-16.7922 -14.4237 -11.9479 -9.5903 -7.4024 -5.7400
-4.2370 -2.8854 -2.3169 -1.8318 -1.4971 -1.6026
-1.5815 -1.5797 -1.7401 -1.6429 -1.2899 -0.9112
-0.3078 0.4909 1.3877 2.3844 3.4334 4.4934
5.5553 6.5933 7.5048 8.3787 9.1728 9.9072
10.6188 11.2625 11.8751 12.3812 12.8810 13.3927
13.8025 14.1574 14.4985 14.8259 15.1147 15.3733
15.6640 15.9373 16.1445 16.4398 16.7378 16.9514
17.1321 17.2173 17.2852 17.3200 17.2559 17.2128
17.2687 17.1229 17.2201 17.2274 17.0615 17.4475
17.5144 17.7125 18.1068 18.6588 19.5932 20.1984
20.9173 22.2845 23.3391 24.3633 25.7544 25.7516
26.3962 27.9221 28.4466 28.8225 29.1141 29.0930
28.8024 28.7244 28.7895 28.5209 28.3476 28.5374
28.1348 28.3384 29.0151 29.3819 30.4190 30.8756
31.6505 32.7114 33.2121 34.6013 35.6705 36.2592
37.1376 37.7236 38.4847 38.9881 39.4979 40.0619
40.3470 40.9376 41.1980 41.3851 41.4254 41.2649
41.2402 40.9853 40.6762 40.4974 40.3039 39.9555
39.9821 39.6712 39.1889 39.0615 38.4517 37.8410
37.2633 36.5352 35.6503 34.9378 34.3858 33.7311
33.3891 33.2222 33.2332 33.2222 33.1094 32.7811
32.0686 31.1278 29.9192 28.7657 27.6828 26.3880
24.9566 23.3867 21.7041 20.0737 18.4388 16.7745
14.9552 13.0250 11.1745 9.2580 7.4232 5.6067
3.7333 2.0140 0.3524 -1.2972 -2.8157 -4.2819
-5.7574 -7.0943 -8.3707 -9.5674 -10.7677 -11.9020
-12.9198 -13.9918 -15.0105 -16.0522 -17.0159 -17.8825
-18.7004 -19.4450 -20.3069 -21.0534 -21.4385 -22.0767
-22.7956 -23.0890 -23.6539 -24.2793 -24.6103 -25.0743
-25.6437 -26.2407 -26.8193 -27.5097 -28.3708 -29.1658
-30.0608 -30.9282 -31.6233 -32.3880 -33.1950 -33.8772
-34.4741 -35.1124 -35.6910 -36.3145 -36.8913 -37.3305
-37.6515 -37.8440 -37.9586 -37.8587 -37.5717 -37.2076
-36.5905 -35.4608 -34.0661 -32.4311 -30.5761 -28.6422
-26.6010 -25.1083 -25.1083 -23.0799 -21.1029 -19.1938
-17.3626 -15.6625 -13.9982 -12.3697 -10.8218 -9.5069
-8.3827 -7.3053 -6.3727 -5.6061 -4.8634 -4.2673
-3.8794 -3.5576 -3.3192 -3.1147 -2.9808 -2.8891
-2.8185 -2.8350 -2.7993 -2.8121 -2.8900 -3.0001
-3.2394 -3.4677 -3.7373 -4.0188 -4.2582 -4.4608
-4.5910 -4.6580 -4.6369 -4.5626 -4.4205 -4.2050
-3.8749 -3.5292 -3.1404 -2.6791 -2.2161 -1.6714
-1.1579 -0.6435 -0.1831 0.1571 0.4248 0.5670
0.7228 0.8494 0.9246 1.0410 1.1593 1.3840
1.6627 2.0185 2.4798 2.9437 3.4866 4.0074
4.6135 5.3343 6.0303 6.7822 7.6414 8.5703
9.5175 10.5812 11.6605 12.7783 13.9676 15.1404
16.3517 17.5914 18.6350 19.4868 20.4515 21.2905
22.0342 22.8145 23.4802 24.1927 24.8319 25.3316
25.9065 26.3962 26.7281 27.0665 27.4140 27.6359
27.7194 27.7497 27.5773 27.3379 27.1527 26.8400
26.3834 25.8213 25.2161 24.5723 23.9241 23.3188
22.7696 22.3249 21.9397 21.6316 21.5482 21.5573
21.5335 21.6500 21.7948 21.8920 22.0305 22.0800
22.0516 22.0828 22.0030 21.9324 21.8911 21.6793
21.5427 21.3492 21.1346 20.8586 20.4845 20.1397
19.6170 19.1778 18.7633 18.1691 17.7776 17.2705
16.3719 15.8061 15.1615 14.3500 13.6879 12.7462
11.8677 11.0406 10.2263 9.3176 8.3823 7.5983
6.7235 5.9606 5.1005 4.2513 3.5324 2.7750
2.1744 1.5399 0.9026 0.3304 -0.2657 -0.7746
-1.1881 -1.6576 -2.3884 -3.1312 -3.8070 -4.5928
-5.4520 -6.2874 -7.1815 -8.1470 -8.8989 -9.6233
-10.2625 -10.7769 -11.3344 -11.8360 -12.3403 -12.8153
-13.1473 -13.3948 -13.6351 -13.8212 -13.9615 -13.9588
-14.0074 -14.0523 -14.0010 -13.9606 -13.8432 -13.7644
-13.5700 -13.3591 -13.0840 -12.5861 -11.9873 -11.1960
-10.2689 -9.2868 -8.3396 -7.3832 -6.3855 -5.4520
-4.5369 -3.5585 -2.5636 -1.6035 -0.6178 0.4450
1.5454 2.6668 3.8085 4.8987 5.9514 7.0793
8.1677 9.2048 10.1988 10.9150 11.5101 12.0209
12.3464 12.5004 12.5775 12.6591 12.6316 12.5784
12.5004 12.3675 12.1932 11.8989 11.5367 11.1644
10.7655 10.3135 9.8834 9.5670 9.2278 8.8986
8.6510 8.4126 8.2007 8.0119 7.8963 7.8239
7.7679 7.6863 7.6286 7.6900 7.7267 7.7349
7.7624 7.7358 7.6588 7.5039 7.3351 7.1747
6.9087 6.6621 6.4374 6.1605 5.8726 5.4957
5.0675 4.5411 3.8754 3.2344 2.5421 1.8544
1.2565 0.6816 0.1048 -0.5068 -1.0726 -1.7374
-2.4343 -3.1165 -3.9344 -4.7093 -5.5171 -6.3498
-7.1631 -8.0727 -8.9815 -9.9571 -10.9529 -11.8690
-12.7979 -13.6488 -14.4292 -15.1554 -15.7579 -16.2659
-16.6914 -17.0517 -17.3644 -17.6762 -17.8972 -18.0842
-18.2979 -18.3355 -18.3281 -18.3822 -18.3667 -18.2988
-18.1833 -18.0384 -17.9714 -17.8999 -17.8146 -17.8440
-17.9183 -18.0861 -18.3703 -18.7289 -19.2525 -19.9347
-20.7013 -21.5146 -22.4050 -23.3531 -24.3591 -25.4365
-26.5140 -27.6024 -28.7303 -29.8242 -30.8567 -31.8746
-32.8713 -33.8543 -34.8272 -35.8038 -36.7409 -37.5635
-38.2521 -38.7821 -39.1627 -39.3571 -39.2259 -38.7564
-38.0999 -37.3223 -36.4640 -35.6186 -34.8116 -34.0716
-33.3793 -32.7338 -32.1983 -31.6967 -31.1584 -30.5532
-29.9049 -29.1301 -28.1168 -26.8835 -25.3668 -23.6420
-21.7292 -19.6770 -17.6074 -15.5039 -13.4379 -11.3665
-9.4876 -7.7490 -6.0453 -4.5286 -2.9212 -1.4421
0.0076 1.4060 2.7338 4.0478 5.0739 6.3531
7.1710 7.9990 9.3387 10.0154 10.6491 11.4331
12.0713 12.7315 13.4376 14.0666 14.5746 15.1074
15.7218 16.1656 16.6607 17.4145 17.9161 18.5194
19.1641 19.7225 20.4973 21.2355 21.9883 22.5945
23.0557 23.6967 24.2789 24.8117 25.4527 25.9579
26.4485 27.0876 27.6075 28.0624 28.5108 28.9151
29.3113 29.5671 29.8367 29.9981 30.1109 30.3007
30.1952 30.0843 30.0320 29.9027 29.9256 29.9577
29.9761 29.9779 29.8422 29.6753 29.4085 29.0068
28.4126 27.6782 27.0436 26.2394 25.2243 24.2276
23.1355 21.7674 20.2305 18.6680 16.9606 15.0973
13.0699 10.9709 8.9609 6.9968 5.0565 3.1996
1.5252 -0.0300 -1.5806 -3.0165 -4.3287 -5.6308
-6.8367 -7.8710 -8.9108 -9.9718 -10.9043 -11.8873
-12.8245 -13.6809 -14.6309 -15.4268 -16.2053 -17.0215
-17.7321 -18.5280 -19.3313 -19.8980 -20.2785 -20.6802
-21.0497 -21.3697 -21.7567 -22.1216 -22.4912 -22.8185
-23.0716 -23.4311 -23.6557 -23.8758 -23.9666 -23.7135
-23.5017 -23.1597 -22.7232 -22.1216 -21.3266 -20.4060
-19.3817 -18.2062 -16.8133 -15.3489 -13.8203 -12.3944
-10.7292 -9.5408 -8.5688 -7.3162 -6.6083 -5.7812
-5.0751 -4.4965 -3.7740 -3.2229 -2.6094 -2.0693
-1.4311 -0.6856 0.0342 0.8375 1.6444 2.4147
3.1299 3.8149 4.4366 4.9455 5.4233 5.7946
6.0450 6.3824 6.6603 6.8748 7.2068 7.3572
7.4773 7.7945 8.0073 8.1953 8.4667 8.6776
8.9463 9.2021 9.3470 9.5845 9.7495 9.7981
9.9852 9.9779 9.9201 9.9412 9.6496 9.3103
8.4071 7.5240 6.6768 5.3637 4.5246 3.5371
2.5944 1.6609 1.1172 0.1397 -1.0625 -1.3403
-3.0120 -3.8097 -4.2251 -5.9389 -6.6349 -7.8921
-9.0640 -9.4262 -10.7915 -11.6874 -12.3752 -13.8350
-14.7584 -15.6607 -16.6226 -17.3534 -17.9155 -18.4895
-18.9608 -19.1360 -19.4688 -19.5101 -19.7714 -19.9796
-19.8897 -19.9741 -20.0218 -19.9759 -19.5679 -19.2368
-18.9874 -18.7472 -18.3676 -17.9439 -17.7293 -17.3277
-17.0370 -16.7500 -16.4612 -16.1237 -15.6066 -15.2233
-14.8152 -14.4952 -14.2118 -13.7744 -13.4324 -13.0803
-12.5787 -12.1239 -11.6434 -11.0391 -10.5797 -10.0726
-9.3363 -8.7201 -8.2139 -7.7289 -7.2282 -6.7853
-6.5240 -6.2397 -5.9655 -5.8381 -5.5676 -5.3401
-5.1751 -4.8972 -4.7505 -4.3489 -4.0133 -3.8427
-3.3485 -2.8955 -2.5425 -2.2151 -1.8896 -1.5787
-1.2651 -0.9075 -0.6691 -0.4609 -0.2510 -0.1455
-0.0290 0.0801 0.1461 0.2222 0.2497 0.3313
0.5065 0.7861 1.2098 1.6683 2.1570 2.6879
3.1959 3.6489 4.0680 4.4449 4.7841 5.0180
5.1473 5.2701 5.3793 5.4719 5.4920 5.4966
5.4544 5.3646 5.3325 5.2600 5.1353 4.9923
4.8621 4.7869 4.7319 4.6732 4.6814 4.6613
4.6264 4.6493 4.6062 4.5925 4.5320 4.4329
4.3779 4.3247 4.3229 4.3174 4.4155 4.5833
4.7768 5.0427 5.3398 5.7066 6.0972 6.5887
7.2141 7.9587 8.7931 9.6239 10.4776 11.3130
12.1493 12.9929 13.8246 14.6810 15.5347 16.3820
17.1963 18.0371 18.9514 19.8821 20.8687 21.9214
23.0438 24.2194 25.3362 26.4650 27.6332 28.7024
29.7716 30.8298 31.7156 32.3712 32.8948 33.3726
33.7311 34.1135 34.3601 34.5600 34.7205 34.7315
34.7627 34.7113 34.7783 34.6187 34.3354 34.1988
34.1098 33.8760 33.1773 32.6353 31.9999 30.6061
28.6465 26.5888 25.0382 23.9690 22.8256 21.7573
21.0411 20.5120 19.8243 19.0357 18.6020 17.9381
17.0468 16.0849 14.9011 13.7769 12.4904 11.2066
9.9430 8.6776 7.4461 6.1807 5.0235 3.8718
2.8127 1.9562 1.1786 0.3451 -0.3509 -0.9469
-1.5127 -2.1399 -2.8735 -3.4539 -4.0509 -4.7606
-5.4988 -6.2718 -6.9888 -7.5344 -8.2176 -8.8210
-9.2052 -9.6637 -10.0396 -10.4504 -10.7548 -10.9382
-11.1785 -11.4407 -11.7406 -11.9579 -12.2046 -12.5787
-12.8474 -13.1674 -13.5342 -13.8258 -14.2265 -14.4612
-14.6666 -14.9262 -15.1270 -15.3397 -15.4864 -15.7129
-15.9256 -16.1677 -16.4300 -16.5382 -16.6051 -16.5932
-16.5538 -16.4657 -16.2411 -15.9669 -15.6322 -15.1691
-14.5805 -13.9780 -13.3334 -12.5787 -11.6636 -10.6164
-9.5747 -8.4560 -7.1851 -6.0132 -4.9018 -3.7474
-2.6892 -1.5402 -0.5077 0.3148 1.1236 1.8920
2.6357 3.2235 3.7516 4.2514 4.6347 5.0143
5.3774 5.6699 5.9450 6.1614 6.2797 6.3540
6.3797 6.3558 6.2962 6.1459 5.8854 5.5471
5.0758 4.5320 3.8846 3.1400 2.3441 1.4180
0.5294 -0.3692 -1.2587 -2.1069 -2.9927 -3.7675
-4.5185 -5.2466 -5.9288 -6.5533 -7.1191 -7.6977
-8.1800 -8.6596 -9.0750 -9.4381 -9.8076 -10.0369
-10.2001 -10.2927 -10.3569 -10.3725 -10.3477 -10.3468
-10.3110 -10.2762 -10.2212 -10.1286 -10.0158 -9.8883
-9.7122 -9.5224 -9.2978 -9.0254 -8.7989 -8.5477
-8.2790 -7.9700 -7.6417 -7.3675 -7.0695 -6.8586
-6.6835 -6.5340 -6.5175 -6.5349 -6.6248 -6.7706
-7.0017 -7.2768 -7.5088 -7.8453 -8.2809 -8.7522
-9.2162 -9.7462 -10.2762 -10.7484 -11.2894 -11.7479
-12.1303 -12.4907 -12.7868 -13.1014 -13.3920 -13.6250
-13.8074 -14.0211 -14.2192 -14.2769 -14.2733 -14.1889
-14.0458 -13.8368 -13.5562 -13.2233 -12.8694 -12.5136
-12.1055 -11.7644 -11.4187 -11.0831 -10.8181 -10.4871
-10.1762 -9.8764 -9.5719 -9.3097 -9.1015 -8.8943
-8.6320 -8.3946 -8.1240 -7.8471 -7.5500 -7.1631
-6.7348 -6.3084 -5.8775 -5.4181 -5.0339 -4.6524
-4.2370 -3.8299 -3.3530 -2.8872 -2.3856 -1.8235
-1.3229 -0.7864 -0.2353 0.3011 0.8311 1.3281
1.8994 2.4532 3.0548 3.7131 4.3183 4.8869
5.4050 5.9423 6.4164 6.8409 7.2251 7.5873
7.9771 8.3374 8.7198 9.0765 9.4084 9.7477
10.0577 10.3566 10.6931 11.0086 11.2846 11.6119
11.9219 12.1805 12.4280 12.6188 12.6885 12.6408
12.4546 12.0998 11.6990 11.2378 10.7738 10.3722
9.9128 9.5579 9.2773 9.0719 8.9720 8.8858
8.9335 9.0453 9.2168 9.4589 9.7376 10.0843
10.4180 10.7216 10.9591 11.1397 11.2983 11.3781
11.4313 11.4643 11.4432 11.4065 11.3451 11.2653
11.1021 10.8600 10.5501 10.1255 9.6404 9.0976
8.4942 7.8074 7.0867 6.3128 5.4701 4.6961
3.9231 3.1685 2.4523 1.7407 1.1640 0.6660
0.2030 -0.2454 -0.7048 -1.1303 -1.5503 -2.0078
-2.4727 -2.9111 -3.3631 -3.7583 -4.1572 -4.5928
-4.8798 -5.0824 -5.2979 -5.4868 -5.5996 -5.5758
-5.5473 -5.5153 -5.4997 -5.4355 -5.3695 -5.3594
-5.3530 -5.5363 -5.4281 -5.4877 -5.7307 -5.6537
-5.7986 -5.9471 -6.1150 -6.3350 -6.5294 -6.7953
-7.1539 -7.4712 -7.8618 -8.3890 -8.7650 -9.3280
-9.9112 -10.4550 -11.0446 -11.6580 -12.3164 -12.8529
-13.5067 -14.0128 -14.6886 -15.2498 -15.4140 -15.9495
-16.3905 -16.6326 -16.8169 -17.2461 -17.4698 -17.4570
-17.7201 -17.8384 -18.1419 -17.9420 -17.8925 -18.2593
-17.8549 -17.5734 -17.4606 -17.2699 -17.1562 -16.8408
-16.6024 -16.3740 -15.9825 -15.5588 -14.9692 -14.5474
-14.2898 -13.8872 -13.5874 -13.3159 -13.0583 -12.8584
-12.7612 -12.8006 -12.7071 -12.5979 -12.6575 -12.7520
-12.8345 -12.9391 -13.0042 -13.0298 -12.9565 -12.8024
-12.6392 -12.3476 -11.9882 -11.6516 -11.4572 -11.3325
-11.2197 -11.1803 -11.1601 -11.1418 -11.0437 -11.0061
-10.9309 -10.7787 -10.5889 -10.2111 -9.7700 -9.2519
-8.6155 -7.9645 -7.3254 -6.6101 -5.8857 -5.2026
-4.4974 -3.7840 -3.1073 -2.4984 -1.8694 -1.2183
-0.6104 -0.0354 0.5413 1.2410 1.8719 2.3753
3.2675 4.2450 4.9621 5.8680 6.8263 7.7662
8.7675 9.6010 10.5116 11.3800 12.1566 13.0287
13.9044 14.8278 15.6329 16.4315 17.2852 18.0638
18.7542 19.6244 20.3580 20.8660 21.5941 22.0911
22.6422 23.3042 23.7361 24.1240 24.4972 24.8026
25.0382 25.3335 25.5068 25.5930 25.7553 25.8864
25.9286 25.9470 26.0249 26.1157 26.0937 26.0313
25.9818 25.9415 25.9029 25.7700 25.6939 25.4986
25.1877 25.0107 24.7485 24.4853 24.2533 24.0507
23.9269 23.7416 23.6023 23.4977 23.4198 23.3308
23.1759 23.0246 22.8366 22.6147 22.3561 22.0361
21.6748 21.3007 20.9238 20.4891 20.0307 19.6327
19.2191 18.7836 18.3251 17.8905 17.5108 17.0285
16.5223 16.0831 15.6090 15.0029 14.3115 13.5734
12.7389 11.7440 10.6840 9.5955 8.2998 7.0601
5.7103 4.2120 2.8916 1.4281 -0.0263 -1.4237
-2.8414 -4.1545 -5.5235 -6.8669 -8.1268 -9.3693
-10.6063 -11.7791 -12.9262 -14.0871 -15.1930 -16.2961
-17.3799 -18.4280 -19.4202 -20.3427 -21.2743 -22.1344
-22.8992 -23.6548 -24.2618 -24.6772 -25.0440 -25.3603
-25.5511 -25.6739 -25.7519 -25.7464 -25.7427 -25.6703
-25.4960 -25.3062 -25.0724 -24.7313 -24.2866 -23.7455
-23.1037 -22.5076 -21.9254 -21.3082 -20.6746 -20.0382
-19.5302 -19.0562 -18.6875 -18.5060 -18.4775 -18.6059
-18.7490 -19.0268 -19.3588 -19.5642 -19.7310 -19.8163
-19.8081 -19.6403 -19.2799 -18.8407 -18.3758 -17.7917
-17.0810 -16.3951 -15.6927 -14.9316 -14.1485 -13.3563
-12.6108 -11.7653 -10.8529 -9.9699 -9.0282 -8.1524
-7.2850 -6.3387 -5.4006 -4.5121 -3.6263 -2.7680
-1.9656 -0.9671 -0.0327 0.5634 1.3538 2.3010
3.0245 3.7205 4.4495 5.1757 5.9011 6.6612
7.3077 7.7827 8.4136 8.8931 9.2746 9.7964
10.1384 10.5162 10.9132 11.1938 11.5643 11.9540
12.2942 12.5720 12.9031 13.3460 13.7659 14.1272
14.4977 14.9314 15.3074 15.7668 16.1794 16.5645
17.0844 17.4466 17.8529 18.2618 18.5764 18.9111
19.2063 19.4236 19.5896 19.7767 19.8656 19.9610
20.0674 20.0857 20.0674 19.9546 19.7959 19.5529
19.1632 18.6937 18.1197 17.4797 16.8103 16.1115
15.4348 14.7049 13.9291 13.1048 12.1860 11.2140
10.1971 9.1912 8.1504 7.0830 6.0505 5.0547
4.1148 3.2088 2.3487 1.5482 0.8119 0.0930
-0.5636 -1.1294 -1.6722 -2.1573 -2.6149 -3.0688
-3.5236 -3.9756 -4.4378 -4.9045 -5.3566 -5.8646
-6.3359 -6.7926 -7.2676 -7.6564 -8.0461 -8.3982
-8.6944 -9.0116 -9.2821 -9.5151 -9.7388 -9.9387
-10.0836 -10.2156 -10.3330 -10.3715 -10.3889 -10.3468
-10.2917 -10.2101 -10.0579 -9.9415 -9.7663 -9.5206
-9.3032 -9.0694 -8.8429 -8.6687 -8.4660 -8.2496
-8.0341 -7.7829 -7.5509 -7.3097 -7.0227 -6.7275
-6.3909 -6.0342 -5.6519 -5.2108 -4.7633 -4.2626
-3.7198 -3.1568 -2.5928 -1.9977 -1.3320 -0.7222
-0.1161 0.5074 1.1163 1.7334 2.2781 2.8420
3.4509 4.0295 4.6182 5.2133 5.8259 6.4448
7.0354 7.5910 8.1339 8.6969 9.2343 9.7074
10.1751 10.6363 11.0471 11.4487 11.7990 12.0925
12.3575 12.5785 12.8380 13.0984 13.3661 13.6229
13.8512 14.1107 14.3060 14.3941 14.3931 14.3510
14.1611 13.9145 13.6852 13.2799 12.8600 12.3630
11.7312 11.0517 10.3676 9.6753 8.6960 7.7781
6.9547 5.9964 5.2069 4.3927 3.5637 2.7522
1.9517 1.1548 0.2562 -0.5168 -1.3311 -2.1628
-2.9587 -3.8647 -4.7358 -5.5464 -6.3588 -7.1713
-7.9232 -8.6118 -9.2766 -9.9048 -10.4540 -10.9785
-11.4462 -11.8689 -12.3402 -12.8327 -13.3434 -13.8046
-14.3218 -14.8729 -15.3809 -15.9155 -16.4043 -16.8994
-17.3387 -17.6605 -17.9081 -18.0731 -18.1859 -18.2125
-18.0603 -17.7907 -17.4322 -16.9462 -16.4391 -15.8788
-15.3085 -14.7601 -14.1788 -13.5846 -13.0436 -12.5576
-12.0844 -11.6965 -11.2353 -10.7530 -10.3504 -9.9644
-9.6416 -9.2913 -8.9740 -8.7072 -8.4165 -8.1258
-7.8462 -7.5481 -7.2767 -6.9695 -6.5661 -6.1846
-5.7756 -5.3190 -4.8513 -4.3571 -3.7794 -3.1256
-2.4516 -1.7575 -1.0725 -0.3343 0.4359 1.1420
1.8407 2.5376 3.2345 3.9809 4.7622 5.5325
6.2706 6.9785 7.6525 8.3155 8.9097 9.3920
9.8037 10.1531 10.4062 10.6354 10.7922 10.7509
10.6675 10.5382 10.3328 10.0797 9.7414 9.3599
8.9445 8.5401 8.1201 7.7020 7.3224 6.9024
6.4503 6.0276 5.6645 5.3115 4.8915 4.4761
4.0726 3.6417 3.1813 2.6467 2.0773 1.3969
0.6083 -0.2170 -1.0725 -1.8932 -2.7340 -3.5437
-4.2828 -5.0136 -5.7316 -6.4249 -7.0530 -7.7022
-8.3450 -8.8741 -9.3729 -9.8204 -10.2165 -10.5696
-10.8364 -11.0675 -11.2362 -11.3426 -11.4086 -11.4196
-11.3563 -11.2509 -11.1170 -10.9354 -10.8025 -10.6347
-10.4008 -10.1854 -9.9332 -9.6691 -9.3995 -9.0666
-8.6513 -8.1634 -7.6105 -6.9530 -6.2369 -5.4895
-4.6688 -3.8793 -3.1256 -2.4122 -1.7290 -1.0367
-0.4233 0.2058 0.8467 1.4666 2.1085 2.6843
3.2024 3.7471 4.2432 4.7219 5.1794 5.5765
5.9680 6.1578 6.3156 6.3587 6.3000 6.2239
5.9075 5.7195 5.2775 4.9786 4.5412 3.8801
3.7829 3.2079 2.7531 2.3258 1.7802 1.5161
0.9724 0.6487 0.2021 -0.2912 -0.7433 -1.3567
-1.8207 -2.4012 -3.0522 -3.7720 -4.5240 -5.2374
-6.0296 -6.7834 -7.5481 -8.3083 -9.0428 -9.8057
-10.5246 -11.2041 -11.8726 -12.4979 -13.1426 -13.7689
-14.2998 -14.7968 -15.2379 -15.6001 -15.8476 -16.1145
-16.2786 -16.2209 -16.1979 -16.1365 -16.0008 -15.8467
-15.6707 -15.4763 -15.2360 -14.9618 -14.6235 -14.2475
-13.8459 -13.3599 -12.7850 -12.1623 -11.4865 -10.7126
-9.8919 -9.0731 -8.1946 -7.2208 -6.2039 -5.2080
-4.1884 -3.1558 -2.1068 -1.0431 0.0105 1.1301
2.2360 3.2886 4.3037 5.2620 6.1688 7.0143
7.8056 8.5970 9.3232 9.9578 10.6253 11.2406
11.7715 12.2685 12.7885 13.3121 13.7880 14.2208
14.5637 14.9956 15.4458 15.8053 16.2317 16.6361
17.0139 17.3568 17.6108 17.8419 18.0546 18.2435
18.3114 18.3811 18.5470 18.6406 18.6653 18.6855
18.6360 18.5379 18.4691 18.2646 17.9318 17.5787
17.1331 16.6388 16.1299 15.6430 15.1460 14.5821
14.0759 13.5899 13.0764 12.5721 12.0265 11.4772
10.8830 10.1623 9.3865 8.6117 7.7891 6.8621
5.8983 4.9493 3.9727 2.9631 1.9196 0.8715
-0.1821 -1.2073 -2.1884 -3.1751 -4.1058 -4.9999
-5.8838 -6.6697 -7.4812 -8.1671 -8.6412 -9.0996
-9.3555 -9.4774 -9.4930 -9.3591 -9.1033 -8.7108
-8.3303 -7.8938 -7.4564 -7.0108 -6.5440 -6.1552
-5.8077 -5.5858 -5.4804 -5.4354 -5.5207 -5.7133
-5.9544 -6.2350 -6.5459 -6.8210 -7.0053 -7.1291
-7.2006 -7.2318 -7.2171 -7.1447 -7.0456 -6.8971
-6.6440 -6.3469 -5.9838 -5.5629 -5.1658 -4.7220
-4.3277 -3.9600 -3.5602 -3.1623 -2.7322 -2.2792
-1.7575 -1.2119 -0.6690 -0.1115 0.4754 1.0815
1.6298 2.1984 2.7935 3.2996 3.7966 4.3377
4.8328 5.2666 5.6535 5.9937 6.3146 6.6292
6.9464 7.2362 7.4829 7.7405 8.0046 8.2394
8.4704 8.7134 8.9170 9.0683 9.2380 9.4415
9.6240 9.7799 9.9165 10.0862 10.2365 10.3383
10.4649 10.5767 10.6684 10.7583 10.8115 10.8206
10.8078 10.7555 10.6776 10.5703 10.4309 10.3502
10.2806 10.1861 10.1109 10.0036 9.9037 9.8267
9.6955 9.5433 9.3948 9.2315 9.0353 8.7941
8.6126 8.4659 8.2889 8.1321 7.9909 7.8992
7.8487 7.8478 7.9359 8.0505 8.1944 8.3861
8.6163 8.8858 9.1022 9.3012 9.5039 9.6185
9.7120 9.7350 9.7111 9.7010 9.6543 9.5901
9.4855 9.3828 9.2499 9.0949 8.9427 8.7098
8.4567 8.1734 7.8698 7.5773 7.2573 6.9675
6.6952 6.4174 6.1413 5.8883 5.6544 5.3665
5.0401 4.7127 4.3267 3.9168 3.5151 3.0502
2.5468 2.0361 1.4951 0.9421 0.3956 -0.1711
-0.7790 -1.3531 -1.9308 -2.5341 -3.1705 -3.8362
-4.4634 -5.1924 -5.9443 -6.6495 -7.4693 -8.2606
-9.0730 -9.9102 -10.6007 -11.3462 -12.0550 -12.6483
-13.3021 -13.8945 -14.4337 -14.9462 -15.3919 -15.8357
-16.2438 -16.5693 -16.8976 -17.2075 -17.3891 -17.5917
-17.8466 -18.0419 -18.2464 -18.4408 -18.5600 -18.6453
-18.7187 -18.7315 -18.7214 -18.6765 -18.5719 -18.4683
-18.2629 -17.9933 -17.7219 -17.3194 -16.8829 -16.4345
-15.8348 -15.1700 -14.4768 -13.7505 -13.0362 -12.2797
-11.5388 -10.8676 -10.1762 -9.4362 -8.7154 -7.9672
-7.1657 -6.3331 -5.4978 -4.7486 -4.0343 -3.3750
-2.8367 -2.3397 -1.8748 -1.4594 -1.0917 -0.7561
-0.4077 -0.0904 0.1948 0.4763 0.7560 1.0439
1.2521 1.4455 1.7069 1.9068 2.1103 2.3057
2.4139 2.5303 2.6459 2.7651 2.8779 2.9549
3.0136 3.1319 3.2722 3.3226 3.3767 3.4867
3.5977 3.6454 3.6839 3.7343 3.7701 3.8022
3.8040 3.8480 3.8911 3.9131 3.9351 3.9489
3.9406 3.9039 3.8590 3.7563 3.6600 3.5170
3.3006 3.0814 2.7706 2.4634 2.1800 1.8169
1.4217 1.0118 0.5808 0.1058 -0.3655 -0.8689
-1.3998 -1.9252 -2.5249 -3.1265 -3.7179 -4.3140
-4.9201 -5.5234 -6.1277 -6.7311 -7.2721 -7.8113
-8.2973 -8.7283 -9.1180 -9.4490 -9.7681 -9.9863
-10.1606 -10.3146 -10.4256 -10.5255 -10.6080 -10.7309
-10.8244 -10.9189 -11.0885 -11.2985 -11.5525 -11.8019
-12.1137 -12.3815 -12.5649 -12.8409 -13.1591 -13.4708
-13.7166 -13.9715 -14.1824 -14.2796 -14.3401 -14.2750
-14.0641 -13.7386 -13.3544 -12.8473 -12.2357 -11.5901
-10.9207 -10.2642 -9.5847 -8.9071 -8.2826 -7.7398
-7.1868 -6.5825 -6.0589 -5.6142 -5.1016 -4.5945
-4.2360 -3.9013 -3.5932 -3.3034 -3.0063 -2.7936
-2.5579 -2.4039 -2.2205 -2.0582 -2.0050 -1.7446
-1.7180 -1.8060 -1.7538 -1.8097 -1.8409 -1.8280
-1.8198 -1.9417 -1.9821 -1.9775 -2.0096 -2.0894
-2.2306 -2.1811 -2.2177 -2.1050 -1.9353 -2.0289
-1.8986 -1.7152 -1.5795 -1.4649 -1.3494 -1.1211
-0.9872 -0.8019 -0.5993 -0.3645 -0.1206 0.0178
0.2782 0.5543 0.8147 1.1283 1.4428 1.7601
2.0975 2.4506 2.7926 3.1603 3.4968 3.7893
4.1130 4.4303 4.7182 5.0025 5.2748 5.5059
5.7223 5.9149 6.0167 6.1294 6.2514 6.3385
6.4568 6.5696 6.7126 6.8814 7.0125 7.1601
7.3719 7.5269 7.6250 7.7360 7.9175 8.0954
8.2467 8.5878 8.8464 9.0683 9.3893 9.6506
9.9743 10.2824 10.6217 10.9729 11.2516 11.6194
11.9476 12.1897 12.4116 12.5226 12.5703 12.5547
12.4355 12.2411 12.0219 11.7679 11.4396 11.1141
10.7959 10.4731 10.1760 9.8927 9.6194 9.4159
9.2582 9.1069 8.9711 8.8363 8.6823 8.5292
8.3568 8.1431 7.9625 7.7286 7.5819 7.5251
7.3334 7.2023 7.1464 7.0363 6.8749 6.7062
6.4825 6.2019 5.8800 5.5068 5.1391 4.6779
4.2726 3.9030 3.4959 3.1685 2.8192 2.5157
2.2351 1.9481 1.6858 1.3768 1.0879 0.8294
0.5387 0.2342 -0.0418 -0.3150 -0.5745 -0.8047
-1.0514 -1.2430 -1.3897 -1.5456 -1.6859 -1.8079
-1.8720 -1.9344 -1.9830 -2.0096 -2.0279 -2.0279
-2.0875 -2.1114 -2.1325 -2.1508 -2.0921 -2.0674
-2.0059 -1.9115 -1.8134 -1.6731 -1.5080 -1.3164
-1.1275 -0.9202 -0.6891 -0.4131 -0.1582 0.0481
0.2929 0.4717 0.6340 0.7422 0.7954 0.8770
0.8990 0.9944 0.9962 0.9504 0.9852 0.9816
0.9816 0.9357 0.9421 0.9284 0.8523 0.7652
0.6120 0.4681 0.2086 -0.1225 -0.4608 -0.8955
-1.2137 -1.5493 -1.8262 -2.1728 -2.4910 -2.6597
-3.0889 -3.2154 -3.4722 -3.7949 -3.9664 -4.3873
-4.5102 -4.8311 -5.1016 -5.2914 -5.5986 -5.7279
-6.0498 -6.1901 -6.3634 -6.5541 -6.5935 -6.7567
-6.8439 -6.8659 -6.8741 -6.9126 -6.8741 -6.8026
-6.7540 -6.6990 -6.6201 -6.4945 -6.4019 -6.2625
-6.1259 -6.0094 -5.8810 -5.7160 -5.5262 -5.3455
-5.1300 -4.8623 -4.5432 -4.2837 -3.9930 -3.6290
-3.2805 -2.9165 -2.6139 -2.2242 -1.8876 -1.6153
-1.2412 -0.9560 -0.6158 -0.3425 -0.1472 0.1297
0.4066 0.5992 0.8945 1.1549 1.3163 1.7518
1.9077 2.1691 2.5808 2.5973 2.9109 3.1209
3.1172 3.2795 3.2428 3.2034 3.1631 3.0246
2.9191 2.7156 2.5945 2.4992 2.2543 2.1415
2.0077 1.8298 1.7427 1.5969 1.4547 1.3300
1.1851 0.9568 0.7083 0.4708 0.1169 -0.2728
-0.6791 -1.1357 -1.6189 -2.1288 -2.6184 -3.1485
-3.7032 -4.2782 -4.8935 -5.4528 -5.9049 -6.1836
-6.3780 -6.4982 -6.5963 -6.7412 -6.8640 -7.0401
-7.2326 -7.4124 -7.6306 -7.8369 -8.0112 -8.1661
-8.2697 -8.3055 -8.3128 -8.3147 -8.2395 -8.1496
-8.0863 -7.9589 -7.7654 -7.5352 -7.3060 -7.0557
-6.8136 -6.5614 -6.2689 -5.9663 -5.6967 -5.4510
-5.1896 -4.9494 -4.6569 -4.3763 -4.1626 -3.8710
-3.5748 -3.2897 -2.9696 -2.7193 -2.4708 -2.1499
-1.8821 -1.6153 -1.3283 -1.0908 -0.8615 -0.6937
-0.5122 -0.3334 -0.2884 -0.2646 -0.1408 -0.1087
-0.1509 -0.0867 -0.0738 -0.0234 0.0600 0.0683
0.1288 0.2764 0.3736 0.4479 0.5882 0.7267
0.9687 1.1191 1.2484 1.4841 1.6436 1.8610
2.0645 2.2819 2.5808 2.7724 2.9219 3.1245
3.3556 3.5317 3.6756 3.8114 3.9104 4.0039
4.0654 4.2130 4.3680 4.4725 4.6330 4.8054
5.0117 5.2492 5.5399 5.8370 6.1285 6.4724
6.8291 7.1675 7.5003 7.8506 8.2064 8.5484
8.9317 9.3279 9.7231 10.1320 10.5392 10.9408
11.2984 11.6790 12.0265 12.3465 12.6583 12.9105
13.1250 13.3149 13.4744 13.5065 13.5065 13.4872
13.4001 13.3002 13.1709 13.0095 12.8582 12.7518
12.5996 12.3970 12.2356 12.1090 11.9256 11.7569
11.6157 11.4341 11.2581 11.0362 10.8051 10.5539
10.2357 9.9560 9.7212 9.4984 9.2912 9.1353
8.9519 8.7758 8.6796 8.5585 8.4439 8.3128
8.1789 8.0588 7.9084 7.7369 7.5416 7.3445
7.1253 6.9272 6.7310 6.5302 6.3202 6.1386
5.9974 5.7975 5.5875 5.3510 5.1336 4.8952
4.5908 4.3249 4.0324 3.7343 3.4198 3.0833
2.7697 2.4350 2.1269 1.8225 1.4868 1.1632
0.8165 0.4644 0.1545 -0.1536 -0.4278 -0.6754
-0.9477 -1.1834 -1.4200 -1.6556 -1.8720 -2.0747
-2.2627 -2.4864 -2.6689 -2.8238 -2.9568 -3.0723
-3.1833 -3.2511 -3.3135 -3.3759 -3.4510 -3.5097
-3.5482 -3.6427 -3.7729 -3.9343 -4.1562 -4.4056
-4.7027 -5.0181 -5.3648 -5.7150 -6.0672 -6.4587
-6.7466 -7.0777 -7.4261 -7.7361 -8.1028 -8.3981
-8.7374 -9.1179 -9.4508 -9.8148 -10.1889 -10.5695
-11.0078 -11.4562 -11.8918 -12.3622 -12.8372 -13.3332
-13.8467 -14.3584 -14.8646 -15.3818 -15.9466 -16.4720
-16.9709 -17.5119 -18.0281 -18.5526 -19.0478 -19.4770
-19.9519 -20.4003 -20.7846 -21.1486 -21.5025 -21.8161
-22.0738 -22.3471 -22.5195 -22.6304 -22.7661 -22.8147
-22.8028 -22.7395 -22.6203 -22.4223 -22.1994 -21.9500
-21.6025 -21.2128 -20.7708 -20.2995 -19.7575 -19.2064
-18.6223 -17.9474 -17.2588 -16.4849 -15.7109 -14.8756
-13.9293 -13.0004 -12.0385 -11.0335 -9.9900 -8.9593
-7.9552 -6.9163 -5.8929 -4.9136 -3.9810 -3.0705
-2.1865 -1.3319 -0.4746 0.2930 1.0990 1.9004
2.5918 3.2823 3.9003 4.5156 5.0740 5.5445
5.9938 6.3633 6.6980 6.9979 7.2803 7.5214
7.7259 7.9387 8.1257 8.2862 8.4632 8.6447
8.7594 8.8960 9.0445 9.0840 9.1170 9.2142
9.2857 9.3105 9.3691 9.3966 9.3838 9.4242
9.4058 9.3389 9.2664 9.1674 9.0684 8.9143
8.7300 8.5384 8.3357 8.0680 7.8011 7.5856
7.3307 7.0501 6.7411 6.4541 6.1772 5.8590
5.5610 5.2859 4.9778 4.6642 4.3267 3.9489
3.5491 3.0888 2.6037 2.0911 1.5767 1.0265
0.4378 -0.1114 -0.6946 -1.2531 -1.7656 -2.2241
-2.7193 -3.2200 -3.5519 -3.9636 -4.4074 -4.8008
-5.1438 -5.4344 -5.7820 -6.0121 -6.2377 -6.4972
-6.6971 -6.8823 -7.0052 -7.0813 -7.0868 -7.0657
-7.0217 -6.9291 -6.7980 -6.6678 -6.4871 -6.2616
-6.0818 -5.8452 -5.5977 -5.3382 -5.0493 -4.7586
-4.4487 -4.1727 -3.8811 -3.6271 -3.3584 -3.0870
-2.8651 -2.5799 -2.3213 -2.0471 -1.7427 -1.4557
-1.1604 -0.8395 -0.4755 -0.1389 0.2260 0.6332
0.9972 1.3456 1.7179 2.1076 2.4919 2.8458
3.1823 3.5372 3.8857 4.2323 4.6128 4.9915
5.3822 5.7563 6.1249 6.5192 6.8915 7.3078
7.7122 8.1294 8.6126 9.0519 9.4847 9.9643
10.4319 10.8757 11.3150 11.7404 12.1586 12.5355
12.9582 13.3479 13.6918 14.0439 14.3419 14.6665
14.8948 15.0590 15.2323 15.3414 15.4661 15.5862
15.6596 15.7210 15.7577 15.7632 15.8219 15.8934
15.9026 15.9127 15.9475 15.9860 15.9860 15.9778
15.9292 15.8200 15.7228 15.5294 15.2442 14.9077
14.4547 13.9852 13.5946 13.2058 12.8041 12.4401
12.0852 11.7010 11.3113 10.8794 10.3723 9.8231
9.1628 8.4430 7.7204 6.9658 6.2157 5.4051
4.6110 3.9141 3.1768 2.4607 1.8344 1.2255
0.6194 0.0857 -0.3856 -0.8312 -1.2512 -1.7124
-2.0985 -2.4497 -2.8119 -3.1081 -3.3933 -3.6253
-3.8407 -4.0636 -4.2607 -4.4817 -4.6834 -4.8650
-5.0924 -5.2593 -5.3923 -5.5573 -5.6728 -5.8122
-5.9369 -6.0506 -6.2460 -6.4046 -6.5880 -6.8016
-6.9832 -7.2436 -7.4774 -7.7314 -8.0139 -8.2294
-8.5109 -8.7823 -9.0794 -9.4086 -9.7103 -10.0367
-10.3072 -10.5805 -10.8712 -11.1233 -11.4030 -11.6359
-11.8083 -11.9853 -12.1412 -12.2246 -12.2154 -12.2081
-12.1558 -12.0596 -11.9440 -11.8092 -11.7093 -11.5736
-11.4094 -11.2068 -11.0536 -10.9757 -10.9427 -10.9968
-11.1013 -11.2691 -11.4929 -11.7872 -12.1751 -12.5831
-13.0031 -13.5056 -14.0640 -14.6821 -15.3286 -15.9466
-16.6829 -17.4358 -18.1547 -18.9698 -19.7374 -20.4287
-21.1816 -21.9729 -22.7248 -23.4823 -24.3195 -25.1126
-25.7178 -26.4102 -27.0860 -27.4436 -27.7553 -28.1203
-28.3147 -28.2184 -28.0680 -27.8076 -27.3693 -26.8723
-26.2029 -25.5390 -24.8623 -24.0049 -23.0458 -22.1490
-21.2540 -20.2655 -19.2202 -18.1556 -17.1341 -16.0218
-14.8673 -13.7284 -12.5813 -11.4140 -10.1220 -8.8694
-7.6801 -6.4605 -5.2996 -4.1498 -3.0833 -2.0893
-1.1072 -0.1894 0.7432 1.6143 2.3983 3.1558
3.8838 4.5954 5.2639 5.8819 6.5605 7.2528
7.8993 8.6117 9.3435 10.0917 10.8712 11.6763
12.4970 13.3250 14.1998 15.1259 16.0502 17.0515
18.0896 19.1780 20.4269 21.6025 22.8303 24.0783
25.2282 26.4597 27.7333 28.9327 30.0267 31.1784
32.3696 33.5075 34.5657 35.7018 36.7398 37.5633
38.4748 39.3743 40.1629 40.9011 41.5842 42.1958
42.6809 43.0449 43.4044 43.5933 43.7804 43.9922
43.9252 43.7923 43.7033 43.6520 43.4539 43.0963
42.5507 41.6172 40.5453 39.4871 38.3739 37.2249
36.0356 34.7262 33.3425 32.0000 30.4934 28.8530
27.1786 25.3621 23.6134 21.8125 19.9987 18.2225
16.3629 14.5748 12.7913 11.0839 9.3618 7.7342
6.2936 4.9824 3.8866 2.8266 1.9069 1.0522
0.2994 -0.3416 -1.0669 -1.6831 -2.2883 -2.8697
-3.4923 -4.1177 -4.6715 -5.2868 -5.8186 -6.4889
-7.1015 -7.8048 -8.6567 -9.3224 -10.0615 -10.8024
-11.6909 -12.5538 -13.2754 -14.0338 -14.7884 -15.5908
-16.3436 -16.9919 -17.6668 -18.4261 -19.0414 -19.6493
-20.2426 -20.7992 -21.3521 -21.7620 -22.1453 -22.4149
-22.6900 -22.9146 -22.9898 -23.0137 -22.8862 -22.6937
-22.3113 -21.7684 -21.1898 -20.5379 -19.9427 -19.2972
-18.6122 -17.9584 -17.2432 -16.5206 -15.7430 -14.8646
-13.9219 -12.9829 -12.1457 -11.3388 -10.6272 -9.9624
-9.2701 -8.6136 -7.9726 -7.3848 -6.7567 -6.2028
-5.6600 -5.0621 -4.5651 -4.0535 -3.5207 -3.0035
-2.5038 -1.9820 -1.5098 -1.0623 -0.6084 -0.2609
0.0261 0.3113 0.5617 0.7249 0.9000 1.0422
1.1155 1.2054 1.2650 1.2934 1.2833 1.2045
1.0577 0.8652 0.6075 0.2811 -0.1160 -0.5635
-1.0687 -1.6134 -2.1581 -2.7669 -3.3364 -3.8820
-4.4817 -5.0245 -5.4803 -5.8883 -6.2588 -6.6265
-6.9713 -7.2592 -7.5242 -7.7874 -8.0230 -8.2147
-8.3999 -8.5521 -8.6851 -8.8208 -8.9061 -8.9776
-9.0610 -9.1307 -9.1867 -9.2573 -9.3095 -9.3545
-9.4618 -9.5342 -9.5883 -9.6864 -9.7790 -9.9367
-10.1000 -10.2283 -10.3989 -10.5951 -10.8418 -11.0701
-11.2975 -11.5873 -11.8615 -12.1897 -12.5428 -12.8701
-13.2424 -13.5973 -13.9650 -14.2823 -14.5005 -14.7050
-14.8325 -14.9361 -14.9636 -14.8517 -14.7197 -14.5775
-14.3822 -14.1401 -13.9164 -13.6661 -13.3690 -13.1049
-12.8087 -12.4823 -12.1641 -11.8138 -11.4525 -11.0344
-10.4988 -9.9202 -9.3160 -8.6172 -7.8882 -7.1189
-6.3193 -5.5793 -4.8109 -4.0580 -3.3538 -2.6615
-2.0086 -1.3594 -0.6983 -0.0316 0.6341 1.2503
1.8390 2.4580 3.0375 3.5730 4.1012 4.5945
5.0778 5.5555 5.9810 6.4101 6.8328 7.1620
7.5151 7.8323 8.1038 8.3697 8.5366 8.7080
8.7869 8.8795 8.9391 8.8383 8.9217 8.9648
8.7897 8.7236 8.7768 8.7887 8.8217 8.8309
8.8328 8.9153 9.0437 9.1198 9.2014 9.3655
9.4205 9.6379 9.7791 9.8222 10.1119 10.2550
10.3696 10.5438 10.7098 10.8235 11.1307 11.5066
11.4810 11.6020 11.8037 11.9119 12.1311 12.2292
12.3686 12.5575 12.7638 13.0426 13.2452 13.4891
13.7972 14.1439 14.4281 14.6812 15.0627 15.4074
15.7036 16.0154 16.2831 16.5812 16.8691 17.0745
17.2872 17.4780 17.6293 17.7668 17.8493 17.9585
18.0419 18.0483 18.1226 18.1657 18.1684 18.2015
18.1556 18.0841 17.9493 17.7586 17.5697 17.2937
16.9351 16.4986 16.0466 15.5019 14.8563 14.1970
13.4754 12.7574 11.9862 11.1866 10.4228 9.6553
8.8621 8.0304 7.1758 6.2607 5.3345 4.4093
3.4905 2.5992 1.6483 0.6745 -0.2297 -1.1035
-1.9352 -2.7596 -3.5445 -4.2368 -4.9796 -5.6600
-6.2835 -6.9538 -7.6058 -8.2834 -8.9959 -9.6928
-10.4264 -11.2544 -12.0045 -12.8298 -13.7422 -14.5995
-15.5917 -16.5958 -17.6118 -18.7268 -19.8281 -20.9963
-22.2379 -23.4327 -24.5725 -25.7105 -26.8081 -27.7755
-28.6879 -29.5333 -30.2816 -30.9647 -31.4911 -31.9349
-32.3035 -32.4759 -32.4805 -32.3594 -32.1660 -31.8294
-31.3627 -30.8969 -30.2962 -29.6058 -28.8172 -27.8048
-26.6815 -25.4473 -24.0838 -22.7001 -21.3888 -20.0913
-18.7342 -17.3220 -15.9117 -14.5702 -13.3020 -12.1044
-10.9830 -9.9129 -8.9079 -7.9900 -7.1464 -6.3780
-5.6407 -4.9576 -4.2909 -3.6426 -3.0549 -2.4011
-1.7317 -1.0861 -0.5084 -0.0133 0.5131 0.9917
1.3888 1.7877 2.1389 2.4121 2.6689 2.8614
3.0237 3.1906 3.2952 3.3759 3.4538 3.5198
3.5868 3.6803 3.7353 3.6922 3.6565 3.6152
3.5171 3.4428 3.3740 3.2356 3.1008 3.0045
2.8816 2.8000 2.7028 2.5579 2.4415 2.3195
2.1700 2.0343 1.9133 1.7354 1.6098 1.4603
1.2778 1.1834 1.0715 0.9890 0.9120 0.8854
0.8835 0.8597 0.8991 0.8817 0.8569 0.8194
0.6827 0.5314 0.3746 0.1976 -0.0325 -0.3149
-0.5836 -0.8422 -1.1283 -1.3997 -1.6326 -1.8362
-1.9866 -2.0975 -2.1746 -2.1993 -2.2167 -2.2332
-2.2067 -2.1342 -2.0196 -1.9114 -1.7949 -1.6042
-1.4236 -1.2622 -1.0439 -0.8092 -0.5368 -0.2517
0.0729 0.3994 0.7020 1.0431 1.3622 1.7134
2.0408 2.3764 2.7551 3.1292 3.5794 4.0214
4.4726 4.9797 5.4932 6.0314 6.5724 7.1180
7.6820 8.2395 8.7787 9.3197 9.8543 10.3669
10.8538 11.3123 11.7607 12.2136 12.6382 13.0233
13.3672 13.6267 13.8532 14.0568 14.2007 14.2860
14.3071 14.2777 14.1604 13.9531 13.7257 13.4791
13.1545 12.7803 12.3961 12.0440 11.6387 11.1729
10.7135 10.1835 9.6736 9.1198 8.4962 7.8956
7.2675 6.6394 6.0268 5.4152 4.8274 4.2369
3.6409 3.0769 2.5130 1.9958 1.4502 0.9184
0.4517 -0.0600 -0.4919 -0.9192 -1.3603 -1.7619
-2.1810 -2.5661 -2.9338 -3.3116 -3.6610 -3.9516
-4.2625 -4.5834 -4.8613 -5.1263 -5.4234 -5.7040
-5.9626 -6.2303 -6.4632 -6.6778 -6.8621 -6.9923
-7.0785 -7.1427 -7.1730 -7.1583 -7.0877 -6.9731
-6.8263 -6.5980 -6.3559 -6.0781 -5.6948 -5.2858
-4.8759 -4.3918 -3.8590 -3.3593 -2.8439 -2.3084
-1.7867 -1.2741 -0.7459 -0.2067 0.3004 0.8184
1.3888 1.9225 2.4030 2.9192 3.4291 3.9151
4.4121 4.8852 5.3373 5.8141 6.2662 6.6651
7.0713 7.4096 7.7232 8.0570 8.3303 8.6155
8.9272 9.2051 9.4838 9.7910 10.0789 10.3641
10.6649 10.9712 11.2417 11.4737 11.7542 12.0385
12.2641 12.4722 12.6593 12.8078 12.9362 13.0087
13.0343 13.0518 13.0380 12.9628 12.8381 12.7162
12.5658 12.3292 12.0853 11.8588 11.6195 11.3700
11.1197 10.8804 10.6227 10.3439 10.0047 9.6415
9.2472 8.7402 8.1946 7.6893 7.0979 6.4661
5.8948 5.2777 4.6459 3.9958 3.3594 2.7285
2.0976 1.4732 0.8395 0.2243 -0.4158 -1.0164
-1.6400 -2.2717 -2.8577 -3.4161 -3.9993 -4.5798
-5.0667 -5.5875 -6.0653 -6.5375 -7.0024 -7.4105
-7.8891 -8.3448 -8.8098 -9.2692 -9.7671 -10.2576
-10.6602 -11.1462 -11.5735 -11.9962 -12.4345 -12.7637
-13.1067 -13.4386 -13.7733 -14.0851 -14.3666 -14.6958
-14.9956 -15.2680 -15.5715 -15.8759 -16.2299 -16.5600
-16.8397 -17.2028 -17.5769 -17.9235 -18.2885 -18.6351
-18.9799 -19.3421 -19.6245 -19.8822 -20.1142 -20.2866
-20.4214 -20.4525 -20.4846 -20.4489 -20.2893 -20.1023
-19.8473 -19.4989 -19.0459 -18.4911 -17.8795 -17.2156
-16.4765 -15.7155 -14.9351 -14.1291 -13.2846 -12.4052
-11.5322 -10.6373 -9.7368 -8.8547 -7.9936 -7.1684
-6.3532 -5.5655 -4.8365 -4.1249 -3.4611 -2.8898
-2.3818 -1.8784 -1.4290 -1.0210 -0.5955 -0.2260
0.1426 0.5406 0.9734 1.3906 1.7904 2.2627
2.7148 3.1375 3.5675 4.0031 4.4882 4.9788
5.4592 6.0177 6.5339 7.0319 7.6178 8.1423
8.6631 9.2509 9.7874 10.2779 10.8217 11.3416
11.8267 12.3338 12.8060 13.2517 13.7047 14.1842
14.6849 15.2177 15.7578 16.2841 16.7912 17.3148
17.8145 18.2913 18.7425 19.1322 19.5513 19.8603
20.1005 20.3289 20.4517 20.5480 20.5664 20.5379
20.5095 20.3729 20.1766 19.9841 19.6971 19.3743
19.0084 18.5784 18.1272 17.5724 17.0333 16.4748
15.8064 15.1654 14.4859 13.6689 12.8665 12.0835
11.1912 10.3064 9.4334 8.5375 7.7150 6.9007
6.0901 5.3382 4.6129 3.9352 3.2805 2.6441
2.0536 1.4741 0.9432 0.4352 -0.0462 -0.4314
-0.7945 -1.1549 -1.4263 -1.6684 -1.9187 -2.0893
-2.2121 -2.2956 -2.3717 -2.4386 -2.4450 -2.4359
-2.4157 -2.3735 -2.3002 -2.2396 -2.1608 -2.0929
-2.0627 -2.0104 -1.9737 -1.9086 -1.8609 -1.8243
-1.7527 -1.7014 -1.6198 -1.4923 -1.3584 -1.2346
-1.0980 -0.9880 -0.9247 -0.8348 -0.7496 -0.6964
-0.6404 -0.5882 -0.5561 -0.5267 -0.5075 -0.4818
-0.4616 -0.4800 -0.4745 -0.4543 -0.4433 -0.4451
-0.4763 -0.5231 -0.6065 -0.7211 -0.8394 -0.9971
-1.1824 -1.4208 -1.6693 -1.8701 -2.1204 -2.3698
-2.6229 -2.8843 -3.1071 -3.3712 -3.6252 -3.8627
-4.1075 -4.3386 -4.5788 -4.8145 -5.0657 -5.3307
-5.5472 -5.8030 -6.0469 -6.1991 -6.3990 -6.5824
-6.7200 -6.8538 -6.9593 -7.0492 -7.1473 -7.2610
-7.3710 -7.4820 -7.5902 -7.7378 -7.8973 -8.0459
-8.2412 -8.4393 -8.6539 -8.8923 -9.1032 -9.3856
-9.7350 -10.0651 -10.3933 -10.7445 -11.1306 -11.5597
-11.9760 -12.4153 -12.8655 -13.2543 -13.7155 -14.1273
-14.5060 -14.9654 -15.3120 -15.6109 -15.9704 -16.2390
-16.4353 -16.6627 -16.8286 -16.9203 -16.9735 -16.9735
-16.8919 -16.7755 -16.6113 -16.3399 -15.9915 -15.5944
-15.2010 -14.6921 -14.1098 -13.5496 -12.9205 -12.2878
-11.6459 -10.9646 -10.2897 -9.6323 -8.8712 -8.0771
-7.3307 -6.5521 -5.8122 -5.0364 -4.3074 -3.6353
-2.9723 -2.3882 -1.8151 -1.2915 -0.8431 -0.3754
-0.0004 0.2995 0.7515 1.1000 1.3925 1.6960
2.0032 2.3205 2.4947 2.7533 2.9825 3.1788
3.3869 3.5015 3.6537 3.8160 3.9307 3.9976
4.1672 4.3525 4.4873 4.6624 4.8623 5.1292
5.3291 5.5528 5.8462 6.1479 6.4863 6.7751
7.1236 7.4491 7.7774 8.1176 8.3835 8.6943
8.9502 9.2143 9.4949 9.6929 9.9387 10.1936
10.3761 10.5732 10.8006 10.9877 11.1436 11.3022
11.4315 11.5250 11.6103 11.7075 11.8175 11.8689
11.9120 11.9624 11.9432 11.9175 11.8762 11.7662
11.6186 11.4077 11.1335 10.7915 10.4045 10.0267
9.6104 9.2225 8.8365 8.4220 8.0332 7.6197
7.2024 6.7274 6.2570 5.7793 5.2227 4.7110
4.2104 3.7014 3.2585 2.8642 2.4544 2.0766
1.7354 1.4301 1.1990 0.9991 0.8056 0.6360
0.5122 0.3976 0.3196 0.3022 0.2875 0.2665
0.2775 0.2921 0.3343 0.4361 0.5140 0.6314
0.7818 0.9313 1.0816 1.2357 1.4328 1.5915
1.7501 1.9133 2.0582 2.2205 2.3865 2.5873
2.7964 2.9862 3.2026 3.4108 3.5969 3.8344
4.0416 4.2159 4.4304 4.6358 4.8137 4.9769
5.1613 5.3016 5.4180 5.5455 5.6408 5.7004
5.7050 5.7545 5.7683 5.7206 5.7426 5.7509
5.7454 5.7334 5.6986 5.6766 5.5895 5.5125
5.4565 5.3327 5.2236 5.0906 4.9522 4.8027
4.5707 4.3497 4.1012 3.8408 3.5391 3.2099
2.9293 2.5818 2.2893 1.9968 1.6438 1.3522
1.0303 0.7130 0.3912 0.0528 -0.2654 -0.5937
-0.9403 -1.3006 -1.6390 -1.9975 -2.3762 -2.7678
-3.1465 -3.5261 -3.9571 -4.3899 -4.8328 -5.2473
-5.6847 -6.1028 -6.5255 -6.9923 -7.4178 -7.8652
-8.2870 -8.7382 -9.1756 -9.5937 -10.0256 -10.4483
-10.8949 -11.3176 -11.7220 -12.0998 -12.4987 -12.8857
-13.2534 -13.5917 -13.9081 -14.2263 -14.4959 -14.7746
-15.0451 -15.2661 -15.4633 -15.6412 -15.7860 -15.8897
-15.9162 -15.8411 -15.7026 -15.5229 -15.2359 -14.8461
-14.3941 -13.9117 -13.3900 -12.8196 -12.2695 -11.7073
-11.1379 -10.5455 -9.9605 -9.3709 -8.7694 -8.2238
-7.6901 -7.1867 -6.7355 -6.3577 -5.9818 -5.6563
-5.3867 -5.0896 -4.8906 -4.7017 -4.5045 -4.3826
-4.2817 -4.2285 -4.1460 -4.0332 -3.9580 -3.8682
-3.7618 -3.6380 -3.5234 -3.4610 -3.3666 -3.2740
-3.2611 -3.2116 -3.2134 -3.2520 -3.2666 -3.3299
-3.3895 -3.5060 -3.6774 -3.9030 -4.1377 -4.3881
-4.7338 -5.0611 -5.3307 -5.5976 -5.9469 -6.2605
-6.5301 -6.8611 -7.1885 -7.4627 -7.6589 -7.8451
-8.0725 -8.1990 -8.2265 -8.2797 -8.2953 -8.2623
-8.1577 -8.0890 -7.9313 -7.6956 -7.5195 -7.2279
-7.0381 -6.7374 -6.4137 -6.2147 -5.9093 -5.6342
-5.4215 -5.2161 -4.9291 -4.6843 -4.4871 -4.3312
-4.0598 -3.8003 -3.7600 -3.5545 -3.3895 -3.2620
-3.1410 -3.1447 -2.9521 -2.8430 -2.7990 -2.6284
-2.5505 -2.4267 -2.2616 -2.1387 -1.9664 -1.7820
-1.5895 -1.3777 -1.1603 -0.9137 -0.6899 -0.4323
-0.1682 0.0739 0.3673 0.6103 0.8607 1.1660
1.4292 1.6859 1.9739 2.2508 2.5030 2.7487
3.0082 3.2760 3.5190 3.7381 3.9591 4.2039
4.4295 4.6193 4.8211 5.0311 5.2126 5.3960
5.5950 5.7656 5.9434 6.1278 6.3139 6.5221
6.7027 6.8934 7.0915 7.2932 7.5481 7.7572
7.9580 8.2441 8.4807 8.6852 8.9328 9.1840
9.4114 9.6407 9.8727 10.0588 10.2789 10.4595
10.6090 10.7667 10.8804 10.9923 11.0546 11.1363
11.2096 11.2243 11.2307 11.2004 11.1638 11.1124
11.0336 10.9327 10.8107 10.7163 10.6319 10.4806
10.3174 10.1689 10.0194 9.8626 9.7039 9.5581
9.3738 9.2170 9.0676 8.9209 8.7705 8.5852
8.4495 8.2817 8.0846 7.9324 7.7600 7.5821
7.4161 7.2428 7.0915 6.9576 6.8228 6.6569
6.4680 6.2873 6.1177 5.9453 5.7307 5.5116
5.2952 5.0595 4.7789 4.5084 4.2599 3.9389
3.6382 3.3044 2.9486 2.6864 2.3838 2.0509
1.7474 1.4604 1.1816 0.9184 0.6342 0.3784
0.1619 -0.0691 -0.2764 -0.4708 -0.6037 -0.7651
-0.9302 -1.0356 -1.1713 -1.2777 -1.3575 -1.4785
-1.5693 -1.6289 -1.7078 -1.7729 -1.8279 -1.8838
-1.9232 -1.9746 -2.0516 -2.1076 -2.1598 -2.2341
-2.3414 -2.4395 -2.5505 -2.7320 -2.8787 -3.0667
-3.2877 -3.4729 -3.7343 -3.9846 -4.2423 -4.4825
-4.7163 -5.0189 -5.2574 -5.5416 -5.8158 -6.0698
-6.3550 -6.6227 -6.8859 -7.0785 -7.3050 -7.5122
-7.6882 -7.8496 -7.9688 -8.0972 -8.1852 -8.2769
-8.3191 -8.3228 -8.3008 -8.2256 -8.1761 -8.0697
-7.9532 -7.7882 -7.5745 -7.3746 -7.1289 -6.8813
-6.6035 -6.3210 -6.0625 -5.7736 -5.4499 -5.1858
-4.8612 -4.6118 -4.4027 -4.0790 -3.8470 -3.5930
-3.3556 -3.0933 -2.9035 -2.7742 -2.6183 -2.5541
-2.4707 -2.4698 -2.5468 -2.6165 -2.7100 -2.8191
-2.9392 -3.0731 -3.1960 -3.3033 -3.3959 -3.4729
-3.5518 -3.5729 -3.6169 -3.6875 -3.7361 -3.7838
-3.8104 -3.8920 -3.9681 -3.9883 -4.0414 -4.1249
-4.1918 -4.2459 -4.2982 -4.3230 -4.3440 -4.3514
-4.3514 -4.3477 -4.2973 -4.2578 -4.2358 -4.1432
-4.0332 -3.9397 -3.8195 -3.6838 -3.5353 -3.3666
-3.1703 -2.9677 -2.7448 -2.5532 -2.3249 -2.0479
-1.8215 -1.5198 -1.2273 -0.9623 -0.6340 -0.3360
-0.0389 0.2720 0.5737 0.8827 1.1835 1.4760
1.7437 2.0188 2.2673 2.4599 2.6479 2.8037
2.9083 2.9551 2.9954 3.0238 2.9945 2.9688
2.9294 2.8707 2.8056 2.7139 2.6240 2.5277
2.4388 2.3388 2.2288 2.1307 2.0234 1.9106
1.7786 1.6722 1.5622 1.4072 1.2807 1.1523
1.0083 0.8818 0.7543 0.6223 0.4948 0.4224
0.3298 0.2316 0.1757 0.0923 0.0409 -0.0288
-0.0801 -0.0682 -0.0673 -0.0315 -0.0123 0.0281
0.1115 0.1950 0.3573 0.5141 0.6892 0.9221
1.1174 1.3329 1.5576 1.8363 2.0885 2.3104
2.5736 2.7854 3.0110 3.2219 3.4099 3.6327
3.8464 4.0472 4.2471 4.4149 4.5928 4.7899
4.9651 5.1475 5.3062 5.4786 5.6675 5.8307
6.0260 6.2360 6.4496 6.6651 6.8779 7.0924
7.2960 7.5372 7.7728 7.9691 8.1735 8.4037
8.6467 8.8548 9.0327 9.2308 9.4289 9.5710
9.7241 9.8883 9.9891 10.0643 10.1276 10.2193
10.2862 10.2707 10.2707 10.2844 10.2349 10.1414
10.0432 9.9405 9.8305 9.6728 9.5105 9.3390
9.1089 8.8704 8.6100 8.3267 8.0186 7.6701
7.3070 6.9026 6.4845 6.1049 5.6821 5.2392
4.8165 4.3562 3.9472 3.5428 3.1146 2.7451
2.3911 2.0317 1.6530 1.3256 1.0111 0.6736
0.3518 0.0024 -0.2837 -0.5936 -0.8962 -1.1979
-1.5179 -1.7582 -2.1350 -2.3854 -2.6706 -2.9878
-3.2446 -3.5949 -3.7819 -4.0790 -4.3083 -4.5238
-4.7548 -4.9272 -5.1436 -5.2216 -5.3894 -5.5104
-5.5590 -5.6351 -5.6700 -5.6993 -5.7067 -5.7039
-5.6709 -5.6305 -5.5774 -5.5370 -5.4646 -5.3454
-5.3307 -5.2848 -5.1244 -5.0235 -4.9575 -4.8658
-4.7677 -4.6714 -4.5247 -4.3835 -4.2588 -4.1203
-4.0286 -3.8938 -3.7471 -3.6453 -3.5637 -3.4958
-3.4106 -3.3409 -3.2932 -3.2217 -3.1455 -3.0988
-3.0300 -2.9612 -2.8851 -2.7989 -2.7164 -2.6531
-2.5559 -2.4422 -2.3560 -2.2964 -2.2359 -2.1323
-2.1332 -2.0764 -2.0122 -1.9672 -1.9150 -1.8820
-1.7398 -1.6701 -1.5702 -1.4308 -1.3134 -1.1695
-1.0081 -0.8605 -0.6816 -0.4753 -0.2644 -0.0471
0.1730 0.4572 0.7002 0.9625 1.2623 1.5585
1.8373 2.1857 2.4746 2.7598 3.0944 3.3503
3.7106 3.9637 4.2737 4.6212 4.9045 5.2539
5.5097 5.8692 6.1810 6.4643 6.7898 7.0585
7.3620 7.6124 7.8920 8.1479 8.3780 8.5926
8.7989 8.9906 9.1015 9.2528 9.3895 9.4701
9.5224 9.5894 9.6123 9.5829 9.5774 9.5261
9.4500 9.3381 9.1886 9.0254 8.8695 8.6880
8.4514 8.2130 7.9278 7.6545 7.3272 6.9521
6.5927 6.1947 5.8004 5.3447 4.8954 4.4589
3.9949 3.5218 3.0284 2.5168 1.9968 1.5145
0.9900 0.4976 0.0235 -0.5065 -0.9714 -1.4400
-1.9232 -2.3945 -2.8815 -3.3060 -3.7388 -4.2129
-4.6714 -5.1271 -5.5498 -5.9854 -6.4421 -6.8584
-7.3031 -7.7304 -8.1256 -8.5282 -8.8491 -9.1710
-9.4836 -9.7432 -9.9916 -10.2016 -10.4180 -10.6399
-10.7940 -10.8976 -11.0251 -11.1076 -11.1562 -11.1984
-11.2057 -11.1755 -11.1012 -11.0040 -10.8912 -10.7271
-10.5061 -10.2750 -10.0045 -9.7642 -9.4983 -9.2113
-8.9674 -8.6520 -8.3530 -8.0211 -7.6451 -7.2508
-6.8015 -6.3559 -5.8653 -5.3674 -4.8621 -4.3642
-3.8736 -3.3436 -2.8310 -2.3469 -1.8939 -1.4739
-1.0906 -0.7440 -0.4368 -0.1461 0.1326 0.3876
0.6626 0.8680 1.0478 1.2082 1.3559 1.5521
1.6961 1.8144 1.9116 1.9794 2.0143 2.0354
2.0133 1.9693 1.9941 1.9143 1.7869 1.7703
1.6768 1.6420 1.7291 1.6585 1.5145 1.4036
1.3742 1.4008 1.4329 1.3843 1.2394 1.3788
1.5200 1.4155 1.5044 1.6126 1.6667 1.7410
1.7777 1.9097 1.9868 2.0243 1.9620 1.9290
1.9519 1.8079 1.6713 1.5393 1.4173 1.2174
0.9781 0.8048 0.6076 0.3857 0.1491 -0.0278
-0.2461 -0.4460 -0.6578 -0.8935 -1.0227 -1.1750
-1.3474 -1.4821 -1.5390 -1.5977 -1.7187 -1.7811
-1.7472 -1.7288 -1.7050 -1.6105 -1.5207 -1.4335
-1.3162 -1.1768 -1.0493 -0.9017 -0.7660 -0.6468
-0.5074 -0.3974 -0.2846 -0.1562 -0.0636 0.0189
0.1317 0.2399 0.3490 0.4572 0.5489 0.6452
0.7782 0.8956 1.0212 1.1798 1.2954 1.4742
1.6548 1.8089 2.0124 2.1702 2.3389 2.5269
2.7121 2.8634 2.9899 3.1706 3.2953 3.4237
3.5942 3.7354 3.8867 4.0545 4.2352 4.3791
4.5534 4.7542 4.9477 5.1283 5.2457 5.3951
5.5373 5.6226 5.7133 5.7977 5.8665 5.9215
5.9362 5.9252 5.8830 5.8096 5.7124 5.5492
5.3878 5.1705 4.9018 4.6396 4.2893 3.9509
3.5942 3.2485 2.8744 2.4819 2.1692 1.7685
1.4329 1.0744 0.6874 0.3316 -0.1049 -0.5285
-0.9943 -1.4629 -1.9911 -2.5394 -3.0887 -3.6856
-4.2899 -4.9034 -5.5104 -6.1486 -6.7832 -7.4470
-8.0862 -8.7400 -9.4405 -10.0650 -10.7215 -11.3836
-11.9971 -12.6417 -13.2478 -13.8337 -14.3949 -14.9149
-15.4082 -15.8410 -16.2976 -16.6690 -16.9900 -17.3201
-17.5631 -17.7886 -17.9620 -18.1087 -18.2590 -18.3379
-18.3728 -18.4360 -18.4443 -18.4003 -18.3507 -18.2352
-18.0647 -17.8556 -17.6034 -17.2779 -16.9010 -16.4049
-15.8392 -15.2514 -14.6205 -13.9979 -13.3881 -12.8095
-12.1988 -11.5752 -10.9581 -10.3282 -9.7147 -9.0316
-8.2879 -7.5626 -6.8418 -6.1238 -5.3829 -4.6998
-4.0900 -3.4655 -2.9199 -2.4514 -1.9874 -1.5913
-1.2657 -0.9439 -0.6541 -0.3781 -0.0801 0.2023
0.5389 0.8726 1.1542 1.5219 1.9162 2.2710
2.6231 2.9707 3.3026 3.6089 3.8932 4.1077
4.3452 4.5928 4.7909 5.0009 5.1595 5.3218
5.5116 5.6840 5.8133 5.9426 6.1416 6.2534
6.3516 6.4900 6.5945 6.7275 6.8229 6.8825
6.9568 7.0521 7.1356 7.1750 7.2447 7.3235
7.3483 7.3822 7.4345 7.4345 7.4648 7.4813
7.4409 7.4253 7.4097 7.3941 7.3245 7.2282
7.1090 6.9054 6.6771 6.4249 6.1315 5.7867
5.3970 5.0247 4.6561 4.2453 3.8290 3.4310
3.0202 2.6342 2.2444 1.8593 1.5365 1.1936
0.8121 0.4655 0.1537 -0.2351 -0.6440 -0.9888
-1.3382 -1.6995 -2.0397 -2.3459 -2.6164 -2.8558
-3.0804 -3.2427 -3.3665 -3.4298 -3.4463 -3.4820
-3.4252 -3.3271 -3.2170 -3.0456 -2.8723 -2.6815
-2.4440 -2.1662 -1.8847 -1.5977 -1.2932 -0.9540
-0.6293 -0.3414 -0.0186 0.2675 0.5104 0.7865
1.0304 1.2184 1.4403 1.6805 1.8841 2.0959
2.3077 2.5525 2.8001 3.0248 3.2366 3.4347
3.6713 3.8290 3.9977 4.2242 4.3801 4.5736
4.7560 4.9238 5.1247 5.2714 5.4227 5.5923
5.7372 5.8940 6.0545 6.2039 6.3598 6.5322
6.6899 6.8275 6.9421 7.0631 7.1906 7.3125
7.4822 7.6106 7.7013 7.8471 7.9590 8.0214
8.0819 8.1708 8.2479 8.2561 8.2744 8.3350
8.3322 8.2625 8.2396 8.1947 8.1176 8.0425
7.9260 7.8426 7.7857 7.6931 7.6151 7.5647
7.4932 7.4033 7.3098 7.2319 7.1493 7.0475
6.9586 6.8742 6.7477 6.6377 6.5267 6.3965
6.2773 6.1223 6.0270 5.9160 5.8023 5.7344
5.6437 5.5703 5.4639 5.3970 5.3301 5.2219
5.1494 5.0770 4.9954 4.9266 4.8752 4.7945
4.7139 4.6240 4.5543 4.4562 4.2847 4.2178
4.0866 3.9262 3.8308 3.6548 3.4943 3.3155
3.1174 2.9175 2.6699 2.4315 2.1949 1.9574
1.6998 1.4604 1.2468 1.0020 0.7690 0.5004
0.1904 -0.1012 -0.3946 -0.7174 -1.0759 -1.4601
-1.8361 -2.2129 -2.6403 -3.0648 -3.5306 -4.0524
-4.5466 -5.0867 -5.6296 -6.1963 -6.7639 -7.3040
-7.9229 -8.4988 -9.0884 -9.7184 -10.3217 -10.9168
-11.5110 -12.1043 -12.6417 -13.1992 -13.6998 -14.1583
-14.6572 -15.0909 -15.5301 -15.9583 -16.3242 -16.6681
-16.9633 -17.2678 -17.5796 -17.8152 -18.0472 -18.2554
-18.4085 -18.5846 -18.6790 -18.7514 -18.8101 -18.7450
-18.6790 -18.5726 -18.3911 -18.1976 -17.9280 -17.6245
-17.3485 -17.0037 -16.6387 -16.2949 -15.9070 -15.5475
-15.1707 -14.7846 -14.4123 -13.9804 -13.5311 -13.1267
-12.7196 -12.2639 -11.8292 -11.4175 -10.9984 -10.5666
-10.1383 -9.7229 -9.2965 -8.8601 -8.4328 -8.0256
-7.6121 -7.2059 -6.8033 -6.3971 -6.0065 -5.6158
-5.1959 -4.7933 -4.4008 -3.9653 -3.5508 -3.1299
-2.7017 -2.2927 -1.8737 -1.4161 -0.9815 -0.5972
-0.1516 0.2601 0.6893 1.1322 1.5283 1.9391
2.3068 2.6965 3.0331 3.3641 3.6942 3.9702
4.2755 4.5176 4.7570 4.9697 5.1494 5.3392
5.4694 5.5896 5.6978 5.7986 5.8931 5.9243
5.9343 5.9985 6.0398 6.0325 5.9985 5.9655
5.9829 5.9573 5.9114 5.8830 5.8564 5.8197
5.8051 5.8500 5.9114 5.9564 5.9518 6.0215
6.1049 6.1003 6.1398 6.1792 6.1718 6.1819
6.1590 6.1067 6.0499 5.9380 5.8362 5.7170
5.5951 5.4777 5.3557 5.2714 5.1494 5.0449
4.9514 4.8780 4.8019 4.6442 4.5387 4.4654
4.3443 4.2590 4.1747 4.0371 3.9335 3.8382
3.7639 3.7098 3.6245 3.5787 3.5649 3.5603
3.5732 3.6263 3.6786 3.7455 3.8299 3.9244
4.0326 4.1307 4.2966 4.4314 4.5176 4.6616
4.8386 5.0201 5.2191 5.4264 5.6125 5.7794
5.9857 6.1966 6.3736 6.6102 6.7853 6.9659
7.1769 7.3300 7.5436 7.7160 7.8417 8.0067
8.1626 8.2910 8.4239 8.5780 8.6944 8.8219
8.9851 9.0988 9.1997 9.3235 9.4757 9.6032
9.6683 9.7966 9.9140 9.9874 10.1038 10.2276
10.3358 10.4138 10.4990 10.5871 10.6549 10.7384
10.8301 10.8915 10.9309 10.9860 11.0346 11.0327
11.0089 10.9419 10.8420 10.7402 10.5825 10.4238
10.2203 9.9424 9.6875 9.4280 9.1043 8.7082
8.3231 7.9636 7.5620 7.1145 6.6780 6.2342
5.7922 5.3842 4.9312 4.4956 4.0647 3.6080
3.1706 2.6874 2.2298 1.7887 1.3211 0.8663
0.3702 -0.0883 -0.5385 -1.0291 -1.4619 -1.9305
-2.4037 -2.8374 -3.2913 -3.7314 -4.1395 -4.5677
-5.0271 -5.3893 -5.8001 -6.2614 -6.6162 -7.0399
-7.4672 -7.8202 -8.2659 -8.6519 -9.0416 -9.4662
-9.8036 -10.2053 -10.5977 -10.9627 -11.3047 -11.6146
-11.9292 -12.2510 -12.5472 -12.8049 -13.0497 -13.2716
-13.4843 -13.6384 -13.7979 -13.9327 -14.0079 -14.0639
-14.0822 -14.0519 -13.9327 -13.8016 -13.6521 -13.4027
-13.0469 -12.5765 -12.0520 -11.4588 -10.7701 -10.0475
-9.3002 -8.5685 -7.8551 -7.1939 -6.5933 -5.9909
-5.4205 -4.8474 -4.2761 -3.7351 -3.2051 -2.7292
-2.2817 -1.8351 -1.3996 -1.0319 -0.6513 -0.2148
0.1061 0.4371 0.7938 1.0808 1.3642 1.6475
1.9951 2.3169 2.5902 2.8873 3.1779 3.4925
3.7987 4.1032 4.4232 4.6735 4.9440 5.2512
5.4915 5.6868 5.8995 6.1040 6.2782 6.5011
6.6890 6.8449 7.0457 7.2227 7.3758 7.5161
7.6528 7.7912 7.9159 8.0186 8.1268 8.2360
8.3194 8.3983 8.4753 8.5303 8.5844 8.5917
8.5697 8.5386 8.4285 8.3222 8.1864 7.9847
7.7656 7.4868 7.1640 6.7743 6.3608 5.8977
5.3787 4.8808 4.3388 3.7777 3.1587 2.5498
1.9712 1.3422 0.7113 0.0401 -0.5679 -1.2024
-1.8250 -2.3706 -2.9612 -3.4948 -4.0496 -4.5760
-5.0702 -5.5654 -6.0486 -6.5585 -7.0252 -7.5149
-7.9788 -8.4327 -8.8600 -9.2782 -9.7312 -10.0943
-10.4317 -10.7829 -11.0883 -11.3432 -11.6275 -11.9053
-12.1098 -12.3317 -12.5233 -12.6939 -12.8929 -13.0460
-13.1570 -13.2771 -13.4275 -13.5238 -13.5595 -13.6421
-13.6815 -13.6457 -13.6384 -13.6035 -13.5063 -13.3706
-13.2212 -13.0717 -12.8461 -12.5784 -12.3014 -11.9851
-11.6174 -11.2157 -10.8123 -10.3483 -9.8595 -9.3974
-8.9307 -8.4300 -7.8963 -7.4213 -6.9298 -6.4163
-5.9487 -5.4828 -5.0546 -4.6080 -4.1532 -3.7681
-3.3711 -2.9502 -2.5357 -2.1304 -1.7398 -1.3409
-0.9502 -0.5376 -0.1433 0.2455 0.6618 1.0487
1.4852 1.9345 2.3243 2.7617 3.2000 3.6117
4.0500 4.4590 4.8689 5.2852 5.6960 6.0912
6.4671 6.8458 7.1622 7.4896 7.8206 8.0810
8.3286 8.5863 8.8549 9.1144 9.3409 9.5500
9.7811 10.0030 10.2231 10.3964 10.5330 10.6935
10.7907 10.8530 10.9071 10.9658 10.9649 10.9410
10.9475 10.8860 10.8567 10.8172 10.7540 10.6889
10.5834 10.4926 10.4083 10.3184 10.2148 10.1359
10.0442 9.9691 9.8957 9.7747 9.6747 9.5894
9.5179 9.3923 9.2483 9.1144 8.9613 8.8219
8.6092 8.3891 8.1626 7.8316 7.5033 7.1677
6.7743 6.3663 5.9206 5.4374 4.9780 4.4975
3.9840 3.5108 3.0037 2.4902 1.9932 1.5338
1.0680 0.5343 0.0639 -0.4138 -0.8778 -1.3198
-1.7874 -2.2450 -2.7301 -3.1574 -3.5792 -4.0505
-4.4311 -4.7905 -5.1527 -5.4847 -5.8258 -6.0908
-6.3989 -6.6997 -6.9628 -7.2618 -7.4837 -7.7652
-7.9834 -8.1650 -8.3942 -8.5318 -8.7298 -8.8875
-8.9747 -9.0893 -9.2057 -9.3369 -9.3910 -9.4304
-9.5074 -9.5652 -9.6395 -9.7000 -9.7321 -9.7825
-9.8155 -9.8219 -9.8485 -9.8504 -9.8265 -9.8467
-9.8375 -9.7871 -9.7367 -9.6835 -9.6651 -9.5890
-9.4946 -9.4487 -9.3543 -9.2287 -9.1241 -9.0196
-8.8509 -8.6216 -8.4089 -8.1906 -7.8761 -7.5497
-7.2269 -6.8601 -6.5007 -6.0981 -5.6754 -5.2545
-4.8428 -4.4338 -4.0560 -3.6993 -3.2995 -2.9722
-2.6696 -2.3642 -2.1093 -1.8617 -1.6517 -1.4417
-1.2620 -1.1364 -0.9888 -0.8329 -0.7467 -0.6486
-0.5578 -0.5211 -0.4459 -0.4129 -0.4092 -0.3643
-0.3405 -0.3460 -0.3560 -0.3634 -0.3597 -0.4101
-0.4872 -0.4991 -0.5358 -0.6045 -0.6550 -0.6843
-0.6953 -0.6917 -0.6907 -0.7054 -0.7036 -0.7173
-0.6907 -0.6770 -0.6871 -0.6431 -0.7100 -0.6806
-0.5789 -0.6550 -0.5844 -0.5394 -0.5468 -0.4606
-0.4477 -0.3230 -0.3001 -0.2258 -0.1130 -0.1121
0.0383 0.0786 0.1611 0.2565 0.2574 0.3170
0.3042 0.2803 0.2574 0.1611 0.0667 -0.0030
-0.1268 -0.2561 -0.4028 -0.5734 -0.7118 -0.8787
-1.0401 -1.1914 -1.3840 -1.5582 -1.6737 -1.8149
-1.9745 -2.0579 -2.1744 -2.2532 -2.2826 -2.3697
-2.4082 -2.4541 -2.5054 -2.5393 -2.5962 -2.6100
-2.6063 -2.6246 -2.6246 -2.5925 -2.5293 -2.4165
-2.3083 -2.2193 -2.1047 -1.9561 -1.8186 -1.6866
-1.5078 -1.4005 -1.2932 -1.1428 -1.0309 -0.8631
-0.7237 -0.5999 -0.4147 -0.2854 -0.1626 0.0465
0.2262 0.3546 0.5701 0.7205 0.9213 1.2010
1.3422 1.5907 1.8053 2.0125 2.2821 2.4692
2.7232 2.9451 3.2101 3.4769 3.7071 4.0143
4.3095 4.5608 4.7928 5.0825 5.3705 5.6070
5.8198 6.0316 6.2728 6.4617 6.6120 6.7853
6.9504 7.0742 7.2026 7.3273 7.4291 7.5547
7.6574 7.7280 7.8050 7.8894 7.9572 8.0168
8.0764 8.1085 8.1406 8.1452 8.1223 8.0719
7.9948 7.8490 7.6436 7.4281 7.1109 6.8514
6.5909 6.2471 5.9775 5.6556 5.2971 4.9716
4.6332 4.2903 3.9574 3.6053 3.2394 2.8956
2.5939 2.2766 1.9392 1.6274 1.2652 0.9030
0.5912 0.2813 0.0098 -0.2643 -0.5449 -0.7439
-0.9658 -1.1547 -1.2996 -1.4646 -1.6169 -1.7773
-1.9195 -2.0763 -2.2010 -2.3339 -2.4678 -2.5806
-2.6787 -2.7897 -2.9098 -2.9703 -3.0620 -3.1317
-3.2161 -3.2885 -3.3123 -3.4050 -3.4902 -3.5269
-3.5379 -3.5388 -3.5819 -3.6039 -3.5709 -3.5572
-3.5242 -3.4737 -3.4169 -3.2995 -3.1950 -3.1363
-2.9932 -2.8153 -2.6796 -2.5228 -2.3431 -2.1102
-1.8663 -1.6636 -1.4160 -1.1547 -0.9053 -0.6504
-0.4441 -0.2506 -0.0012 0.2693 0.4353 0.5949
0.8012 1.0185 1.2248 1.3340 1.4761 1.6127
1.7347 1.8502 1.9071 2.0134 2.0629 2.0529
2.0419 2.0556 2.0088 1.8667 1.7383 1.5916
1.4422 1.2588 1.0561 0.8269 0.6160 0.4537
0.2244 -0.0186 -0.2331 -0.4477 -0.6916 -0.8943
-1.0795 -1.2968 -1.4701 -1.6636 -1.8562 -2.0286
-2.2120 -2.3669 -2.4898 -2.5632 -2.6732 -2.7557
-2.7704 -2.8236 -2.8465 -2.8346 -2.7897 -2.7420
-2.6805 -2.5714 -2.4678 -2.3312 -2.1725 -2.0093
-1.8452 -1.6572 -1.4335 -1.2207 -1.0052 -0.7815
-0.5486 -0.3010 -0.0791 0.1529 0.4225 0.6416
0.8764 1.1157 1.3083 1.5384 1.7393 1.9557
2.1391 2.2629 2.4407 2.5581 2.7094 2.8635
2.9451 3.1239 3.2587 3.3559 3.4705 3.5530
3.6695 3.7493 3.7914 3.8373 3.8749 3.9418
3.9941 3.9978 4.0143 3.9822 3.9519 3.9400
3.8492 3.7896 3.7163 3.6145 3.5209 3.4219
3.3137 3.1679 3.0505 2.9212 2.7681 2.6141
2.4527 2.2849 2.1088 1.9373 1.7659 1.5944
1.4284 1.2248 0.9864 0.8104 0.6380 0.4142
0.2153 -0.0085 -0.2607 -0.4211 -0.6229 -0.8118
-0.9667 -1.1895 -1.3711 -1.5472 -1.7416 -1.9653
-2.1670 -2.3917 -2.6108 -2.7750 -2.9886 -3.1803
-3.3536 -3.5718 -3.7892 -4.0056 -4.1963 -4.3806
-4.6300 -4.8024 -4.9803 -5.1756 -5.2976 -5.4470
-5.5635 -5.6644 -5.7863 -5.8909 -5.9147 -6.0220
-6.1412 -6.1366 -6.2045 -6.2311 -6.2347 -6.2311
-6.1522 -6.1256 -6.0697 -5.9780 -5.8633 -5.7396
-5.6286 -5.4278 -5.2536 -5.1105 -4.8703 -4.5979
-4.3467 -4.0697 -3.7763 -3.4884 -3.1574 -2.8538
-2.5485 -2.2486 -1.9919 -1.6682 -1.3537 -1.0758
-0.7952 -0.5403 -0.2661 -0.0186 0.1685 0.3766
0.5426 0.6572 0.8049 0.9204 1.0002 1.0790
1.1166 1.1836 1.2560 1.2643 1.3065 1.3441
1.3798 1.4422 1.4880 1.4899 1.4899 1.5485
1.5595 1.5375 1.5623 1.5320 1.4853 1.4752
1.4119 1.3835 1.3386 1.2780 1.2478 1.1652
1.1552 1.0745 0.9635 0.9360 0.8526 0.7389
0.6380 0.5527 0.4051 0.2758 0.1520 -0.0030
-0.1955 -0.4330 -0.6467 -0.8668 -1.0694 -1.3042
-1.4976 -1.7003 -1.8984 -2.0561 -2.2092 -2.3137
-2.4375 -2.4871 -2.5421 -2.5641 -2.5531 -2.5246
-2.4302 -2.3293 -2.2624 -2.0928 -1.8378 -1.6673
-1.3986 -1.2455 -0.9676 -0.6045 -0.3670 0.0273
0.2859 0.6160 1.0644 1.3945 1.7402 2.1079
2.5343 2.9185 3.2064 3.5879 4.0234 4.4012
4.7726 5.1091 5.4622 5.8702 6.2095 6.5332
6.8789 7.1980 7.5584 7.8426 8.1755 8.4634
8.4974 8.8495 9.3382 9.4849 9.5482 9.7857
10.0580 10.2130 10.3955 10.5092 10.6091 10.7320
10.7128 10.6880 10.8008 10.9099 10.8796 10.8338
10.8641 10.8641 10.8796 10.9200 10.8861 10.9026
10.8833 10.8622 10.8962 10.8145 10.7559 10.7421
10.6898 10.6266 10.5312 10.4349 10.3716 10.2451
10.0690 9.8811 9.6940 9.5629 9.3822 9.1576
8.9705 8.8082 8.6175 8.4075 8.2113 7.9903
7.7271 7.4823 7.2384 6.9596 6.6937 6.3993
6.1068 5.8005 5.4493 5.1000 4.7341 4.3701
3.9721 3.5769 3.1982 2.7764 2.3463 1.9098
1.4660 1.0488 0.5995 0.1236 -0.3184 -0.7549
-1.1996 -1.6627 -2.0964 -2.5466 -2.9767 -3.3765
-3.8056 -4.1770 -4.6107 -5.0307 -5.3810 -5.7845
-6.1522 -6.5236 -6.8527 -7.1663 -7.5625 -7.8807
-8.1530 -8.4464 -8.7114 -8.9508 -9.1736 -9.4212
-9.6431 -9.8366 -10.0942 -10.3519 -10.5848 -10.8196
-11.0433 -11.2982 -11.5431 -11.7677 -12.0107 -12.2308
-12.4041 -12.5884 -12.7855 -12.9671 -13.1276 -13.2853
-13.4925 -13.6512 -13.7713 -13.8749 -13.9235 -13.9400
-13.8566 -13.7209 -13.5255 -13.2284 -12.8882 -12.4939
-12.0400 -11.5550 -11.0396 -10.5325 -10.0566 -9.5936
-9.1369 -8.6904 -8.3116 -7.9779 -7.6459 -7.3543
-7.1022 -6.8518 -6.6345 -6.4355 -6.2640 -6.1540
-6.0091 -5.8918 -5.7918 -5.6680 -5.5351 -5.4186
-5.3352 -5.2104 -5.0995 -4.9794 -4.8941 -4.8006
-4.6621 -4.5392 -4.3907 -4.2678 -4.0899 -3.9175
-3.7598 -3.5663 -3.3719 -3.1693 -2.9208 -2.6567
-2.4669 -2.2019 -1.9387 -1.6737 -1.4380 -1.2601
-0.9346 -0.6146 -0.3331 -0.0461 0.2767 0.5931
0.9498 1.2891 1.6146 2.1428 2.3711 2.5526
3.0396 3.3862 3.7456 4.1427 4.5461 4.9707
5.3393 5.7474 6.1765 6.6432 7.0192 7.3832
7.8381 8.2379 8.7349 9.1768 9.5299 9.9819
10.3836 10.7870 11.2089 11.5986 11.9461 12.2799
12.6292 12.8906 13.2418 13.5719 13.6957 13.9469
14.1798 14.3174 14.4944 14.5063 14.5173 14.5842
14.5668 14.5448 14.4953 14.3816 14.2514 14.0579
13.8552 13.6040 13.1565 12.8970 12.7411 12.2194
11.6573 11.1978 10.7009 10.2891 9.8802 9.4299
9.0567 8.7266 8.3461 7.9472 7.6638 7.4098
7.0596 6.7276 6.4617 6.1967 5.9519 5.7602
5.5603 5.4008 5.2916 5.1862 5.1385 5.1037
5.0560 5.0477 5.0752 5.0807 5.1092 5.1293
5.1064 5.0890 5.0972 5.1596 5.1468 5.1706
5.2440 5.2284 5.2687 5.2944 5.2861 5.3026
5.2907 5.2394 5.1899 5.1266 5.0358 4.9689
4.8377 4.7341 4.5837 4.4233 4.3490 4.1454
3.9886 3.8300 3.6081 3.4504 3.2734 3.0689
2.8397 2.6343 2.4096 2.1483 1.9007 1.6072
1.3303 1.0681 0.7416 0.4528 0.1594 -0.1680
-0.4523 -0.7695 -1.1180 -1.4343 -1.7654 -2.1588
-2.5191 -2.8456 -3.2169 -3.5865 -3.9368 -4.2577
-4.5796 -4.9454 -5.2838 -5.6011 -5.9385 -6.2851
-6.6418 -6.9747 -7.3204 -7.6487 -7.9522 -8.2915
-8.6124 -8.9260 -9.2304 -9.5257 -9.8026 -10.0337
-10.2721 -10.5105 -10.6958 -10.8498 -10.9846 -11.1533
-11.3147 -11.4055 -11.5550 -11.6751 -11.7961 -11.9511
-12.0556 -12.2207 -12.3912 -12.5398 -12.7360 -12.9194
-13.0927 -13.3073 -13.4999 -13.6988 -13.8978 -14.0931
-14.3233 -14.5140 -14.7158 -14.8918 -15.0431 -15.1981
-15.3136 -15.4392 -15.5236 -15.5658 -15.6171 -15.7033
-15.7125 -15.6657 -15.6822 -15.6520 -15.5832 -15.5071
-15.4016 -15.2641 -15.1256 -14.9899 -14.7891 -14.5938
-14.3691 -14.0693 -13.7823 -13.4788 -13.1395 -12.7819
-12.4371 -12.0620 -11.6421 -11.2459 -10.8067 -10.3666
-9.9402 -9.4496 -8.9599 -8.5042 -8.0393 -7.5643
-7.1113 -6.6510 -6.2017 -5.7707 -5.3553 -4.9738
-4.6171 -4.2944 -3.9725 -3.6782 -3.4049 -3.1637
-2.9978 -2.8107 -2.6264 -2.4687 -2.3431 -2.2605
-2.1587 -2.0405 -1.9423 -1.8323 -1.7479 -1.6691
-1.5297 -1.4261 -1.3105 -1.2078 -1.0795 -0.9071
-0.7961 -0.6182 -0.4633 -0.3679 -0.1753 -0.0176
0.0741 0.2428 0.4097 0.5793 0.7416 0.8416
0.9846 1.1112 1.2157 1.3340 1.4294 1.5321
1.6018 1.6430 1.7228 1.7705 1.7989 1.8457
1.8658 1.8750 1.8713 1.8622 1.8594 1.8218
1.7842 1.7485 1.6659 1.5807 1.4660 1.3331
1.2093 1.0653 0.9030 0.7462 0.6087 0.4372
0.2777 0.1034 -0.1047 -0.3000 -0.4935 -0.6687
-0.8511 -1.0235 -1.1767 -1.3637 -1.5242 -1.6553
-1.8415 -2.0102 -2.1633 -2.2871 -2.4467 -2.6053
-2.7401 -2.9547 -3.1326 -3.3004 -3.5003 -3.7167
-3.9037 -4.1064 -4.3210 -4.4677 -4.5988 -4.7437
-4.8776 -4.9949 -5.1343 -5.2563 -5.3791 -5.5057
-5.6011 -5.7138 -5.8303 -5.9376 -6.0302 -6.1265
-6.2411 -6.3145 -6.3841 -6.4731 -6.5235 -6.5575
-6.5996 -6.6372 -6.6482 -6.6326 -6.6134 -6.6088
-6.5795 -6.5299 -6.5254 -6.4502 -6.3475 -6.2769
-6.1256 -5.9853 -5.8395 -5.6203 -5.3846 -5.1206
-4.8079 -4.4475 -4.0780 -3.6919 -3.2729 -2.8455
-2.3770 -1.9038 -1.4307 -0.9208 -0.3890 0.1364
0.6380 1.1469 1.6935 2.2281 2.6875 3.1964
3.7016 4.1491 4.6259 5.0395 5.4384 5.8162
6.1554 6.5021 6.7808 7.0742 7.3539 7.5887
7.8225 7.9976 8.1664 8.3030 8.4305 8.5643
8.6322 8.6973 8.7321 8.7422 8.7560 8.7165
8.6689 8.5845 8.4662 8.3635 8.2480 8.1159
7.9591 7.7941 7.6446 7.4924 7.3218 7.1329
6.9303 6.7423 6.5406 6.3572 6.1720 5.9271
5.7162 5.5512 5.3531 5.1110 4.9313 4.7910
4.6076 4.4389 4.2995 4.1454 3.9630 3.7823
3.5870 3.3899 3.1771 2.9167 2.6719 2.4032
2.0978 1.7760 1.4862 1.1745 0.8223 0.5014
0.1832 -0.1093 -0.4486 -0.7686 -1.0464 -1.3325
-1.6196 -1.8754 -2.1248 -2.4292 -2.6420 -2.8510
-3.0867 -3.3141 -3.5186 -3.6671 -3.8817 -4.0321
-4.1486 -4.2733 -4.3732 -4.5007 -4.5511 -4.5960
-4.6327 -4.6318 -4.6465 -4.6135 -4.5768 -4.5282
-4.4649 -4.3943 -4.2788 -4.1696 -4.0330 -3.8386
-3.6580 -3.4489 -3.1683 -2.8914 -2.6181 -2.3229
-2.0047 -1.6755 -1.3518 -1.0574 -0.7750 -0.4935
-0.2468 -0.0011 0.2098 0.4088 0.5959 0.7517
0.9388 1.1194 1.3047 1.4661 1.6265 1.8494
2.0383 2.2161 2.3995 2.5398 2.7113 2.8901
3.0231 3.1735 3.3202 3.4788 3.6301 3.7392
3.8649 4.0070 4.1482 4.2592 4.3729 4.5242
4.6635 4.7791 4.8928 4.9992 5.1321 5.2339
5.3210 5.4622 5.5172 5.5961 5.6997 5.7236
5.7648 5.7887 5.7951 5.7676 5.7300 5.6759
5.6053 5.5292 5.4063 5.2807 5.1211 4.9423
4.7589 4.5645 4.3298 4.0428 3.7631 3.4742
3.1533 2.8305 2.5316 2.1996 1.8649 1.5367
1.1983 0.8975 0.5821 0.2667 -0.0359 -0.3330
-0.5907 -0.8438 -1.0960 -1.3481 -1.5902 -1.8167
-2.0230 -2.2302 -2.4292 -2.5869 -2.7859 -2.9693
-3.0977 -3.2545 -3.3755 -3.4892 -3.5883 -3.6497
-3.7130 -3.7515 -3.7570 -3.7332 -3.7267 -3.6552
-3.5397 -3.4590 -3.3288 -3.1747 -3.0179 -2.8492
-2.6658 -2.4705 -2.2642 -2.0469 -1.8130 -1.5783
-1.3674 -1.1170 -0.8511 -0.5879 -0.2780 0.0429
0.3446 0.6674 1.0259 1.3817 1.7402 2.1345
2.5215 2.9204 3.3532 3.7631 4.1895 4.5984
5.0138 5.4760 5.8804 6.3013 6.7387 7.1247
7.5062 7.8812 8.2269 8.5478 8.8697 9.1925
9.4483 9.6867 9.9389 10.1498 10.3506 10.5056
10.6440 10.7412 10.8228 10.8779 10.8540 10.8357
10.7669 10.6844 10.5514 10.3644 10.1947 9.9581
9.6950 9.4419 9.1916 8.9100 8.6239 8.3424
8.0178 7.6960 7.3494 7.0192 6.6708 6.3031
5.9932 5.5998 5.2486 4.9084 4.5113 4.1977
3.8392 3.4706 3.1065 2.7801 2.4436 2.0557
1.7146 1.3432 1.0186 0.6931 0.3510 0.0558
-0.2780 -0.5916 -0.8896 -1.1721 -1.4132 -1.6718
-1.8845 -2.0707 -2.2678 -2.4494 -2.6429 -2.7722
-2.8804 -3.0133 -3.0821 -3.1426 -3.1931 -3.1940
-3.2132 -3.2215 -3.2105 -3.1793 -3.1591 -3.1170
-3.0509 -3.0115 -2.9271 -2.8391 -2.7502 -2.6255
-2.4531 -2.2697 -2.1092 -1.9533 -1.7406 -1.4994
-1.3133 -1.0840 -0.8447 -0.6310 -0.3780 -0.1221
0.1117 0.3776 0.6252 0.8306 1.0938 1.3441
1.5660 1.7696 1.9640 2.2042 2.4051 2.6270
2.8241 2.9901 3.2102 3.3789 3.5540 3.7209
3.8795 4.0519 4.2161 4.3665 4.4426 4.5572
4.6498 4.7002 4.7763 4.7864 4.8277 4.8891
4.9194 4.9377 4.9497 4.9680 4.9781 5.0303
5.0386 5.0303 5.0468 5.0093 4.9992 5.0001
4.9772 4.9331 4.8891 4.8735 4.8552 4.8460
4.8286 4.8112 4.7672 4.7122 4.6929 4.6691
4.6260 4.5618 4.5058 4.4123 4.3023 4.2142
4.0529 3.8915 3.7411 3.5604 3.3881 3.1423
2.8690 2.6526 2.3858 2.0960 1.7879 1.4349
1.1140 0.7664 0.4253 0.0952 -0.2285 -0.5421
-0.8768 -1.1757 -1.4902 -1.8075 -2.1193 -2.4329
-2.7281 -3.0262 -3.3049 -3.5718 -3.8193 -4.0633
-4.2971 -4.5401 -4.7932 -5.0114 -5.2498 -5.4708
-5.6890 -5.9366 -6.1521 -6.3704 -6.5813 -6.8059
-7.0342 -7.2369 -7.4826 -7.7064 -7.9430 -8.2034
-8.4335 -8.6940 -8.9516 -9.1937 -9.4349 -9.6935
-9.9135 -10.1382 -10.3399 -10.5022 -10.7480 -10.9066
-11.0222 -11.1753 -11.2651 -11.3770 -11.4210 -11.3669
-11.3651 -11.3147 -11.2101 -11.1038 -10.9048 -10.6700
-10.4096 -10.1180 -9.7897 -9.4019 -8.9929 -8.5482
-8.0759 -7.6000 -7.1186 -6.6326 -6.1558 -5.6735
-5.1728 -4.6712 -4.1715 -3.7038 -3.2444 -2.7309
-2.2596 -1.8332 -1.3765 -0.9621 -0.5577 -0.1597
0.2263 0.5885 0.9113 1.2543 1.5248 1.7696
2.0264 2.2253 2.4243 2.6435 2.8415 3.0057
3.1772 3.3468 3.5073 3.6613 3.8053 3.9657
4.0877 4.1611 4.2977 4.4462 4.5389 4.6581
4.7874 4.8882 4.9432 5.0093 5.1028 5.1844
5.2578 5.2697 5.3430 5.4127 5.4146 5.4760
5.4962 5.5118 5.5705 5.5980 5.6236 5.6878
5.7538 5.8144 5.8666 5.9253 6.0042 6.0473
6.0950 6.1463 6.1885 6.2334 6.2618 6.2958
6.3260 6.3444 6.3719 6.4159 6.4783 6.4911
6.4773 6.5259 6.5507 6.5562 6.4883 6.3911
6.3765 6.3114 6.1839 6.0464 5.9510 5.7988
5.6200 5.4714 5.2963 5.1596 4.9533 4.7397
4.5434 4.3206 4.0996 3.8392 3.5962 3.3193
3.0323 2.7498 2.4463 2.1520 1.8769 1.6348
1.3625 1.0736 0.7949 0.5198 0.2722 0.0090
-0.2578 -0.5302 -0.8309 -1.1078 -1.3472 -1.5847
-1.8524 -2.1156 -2.3843 -2.6254 -2.8565 -3.1279
-3.3829 -3.6240 -3.8578 -4.0898 -4.3246 -4.5208
-4.6941 -4.8638 -5.0297 -5.2003 -5.3195 -5.4369
-5.5698 -5.6707 -5.7569 -5.8422 -5.9155 -5.9586
-6.0274 -6.0650 -6.0622 -6.0714 -6.0769 -6.0824
-6.0485 -6.0155 -5.9568 -5.8596 -5.8092 -5.6964
-5.5506 -5.4598 -5.2847 -5.1132 -4.9646 -4.7757
-4.6290 -4.4328 -4.2265 -4.0422 -3.8267 -3.6332
-3.4342 -3.2169 -3.0078 -2.8290 -2.6502 -2.4659
-2.2880 -2.1064 -1.9414 -1.8020 -1.6709 -1.5186
-1.3719 -1.2546 -1.1354 -1.0299 -0.9290 -0.8318
-0.7621 -0.6613 -0.5879 -0.4843 -0.4054 -0.4045
-0.3312 -0.3367 -0.3559 -0.3358 -0.3678 -0.3834
-0.4018 -0.4018 -0.4247 -0.4797 -0.5338 -0.6237
-0.7218 -0.8199 -0.9501 -1.1051 -1.2399 -1.3793
-1.5819 -1.7781 -1.9276 -2.1367 -2.4090 -2.6401
-2.8547 -3.1133 -3.3645 -3.5947 -3.8303 -4.1164
-4.3961 -4.6391 -4.8894 -5.1086 -5.3809 -5.6588
-5.8761 -6.1273 -6.3804 -6.6078 -6.8334 -7.0663
-7.3157 -7.5248 -7.7091 -7.9072 -8.1089 -8.3006
-8.4720 -8.6316 -8.7609 -8.9122 -9.0195 -9.0928
-9.2130 -9.2955 -9.3349 -9.3276 -9.3578 -9.3734
-9.3010 -9.2505 -9.2175 -9.1387 -8.9910 -8.8562
-8.7389 -8.6032 -8.4225 -8.1933 -7.9668 -7.7220
-7.4643 -7.2112 -6.9416 -6.6418 -6.3639 -6.0723
-5.7569 -5.4818 -5.2085 -4.9169 -4.6125 -4.3264
-4.0550 -3.7891 -3.5158 -3.2627 -2.9977 -2.6988
-2.4860 -2.2284 -1.9826 -1.7681 -1.4755 -1.2509
-0.9960 -0.7190 -0.4440 -0.1524 0.1172 0.4455
0.7573 1.0544 1.3634 1.6339 1.9338 2.2455
2.5362 2.8214 3.0836 3.3285 3.5816 3.8594
4.1006 4.3436 4.5728 4.7635 4.9937 5.2009
5.4027 5.6117 5.7823 5.9813 6.1381 6.2444
6.3948 6.5324 6.6653 6.7827 6.8836 6.9964
7.0835 7.1522 7.2210 7.3072 7.3586 7.3907
7.4365 7.4521 7.4347 7.4383 7.4365 7.3879
7.3494 7.2751 7.1761 7.1128 7.0248 6.8973
6.7745 6.6507 6.5003 6.3352 6.1582 5.9877
5.8281 5.6420 5.4293 5.2101 4.9919 4.7452
4.5150 4.3243 4.0703 3.8191 3.5816 3.2991
3.0809 2.8645 2.6041 2.3739 2.1199 1.8952
1.6743 1.4689 1.2314 0.9682 0.8270 0.5693
0.3703 0.1915 -0.0882 -0.2266 -0.4806 -0.6493
-0.7612 -0.9877 -1.0987 -1.2582 -1.4361 -1.5709
-1.6819 -1.7855 -1.8992 -2.0028 -2.1165 -2.1963
-2.2761 -2.3402 -2.4549 -2.5475 -2.5979 -2.7134
-2.8024 -2.9051 -2.9895 -3.0977 -3.2077 -3.2682
-3.3590 -3.4406 -3.5222 -3.6075 -3.6937 -3.7579
-3.8468 -3.9440 -4.0449 -4.1228 -4.1513 -4.2475
-4.2989 -4.3062 -4.3576 -4.3567 -4.3466 -4.3365
-4.2815 -4.2420 -4.2200 -4.1549 -4.0458 -3.9798
-3.8991 -3.7496 -3.6478 -3.5369 -3.3581 -3.1967
-3.0500 -2.8757 -2.6878 -2.5145 -2.3384 -2.1183
-1.9230 -1.7690 -1.5764 -1.4013 -1.2316 -1.0537
-0.9052 -0.7566 -0.5925 -0.4210 -0.2807 -0.1267
0.0246 0.1713 0.3465 0.5152 0.6904 0.8591
1.0480 1.2470 1.4304 1.5927 1.7806 1.9677
2.1346 2.3189 2.4674 2.6059 2.7627 2.9324
3.0809 3.2010 3.3147 3.4220 3.5137 3.6164
3.7255 3.8007 3.8897 3.9621 3.9896 4.0245
4.0602 4.0767 4.1171 4.1033 4.0511 4.0419
3.9768 3.9218 3.8264 3.6953 3.6182 3.4853
3.3422 3.2276 3.1323 3.0048 2.8205 2.6408
2.4739 2.2712 2.0502 1.8338 1.6147 1.3744
1.1122 0.8848 0.6188 0.3309 0.0586 -0.2532
-0.5274 -0.8116 -1.1436 -1.4407 -1.7515 -2.0266
-2.3191 -2.6236 -2.8684 -3.1802 -3.4764 -3.7634
-4.0247 -4.2879 -4.5501 -4.7436 -4.9784 -5.2122
-5.4148 -5.5881 -5.7935 -5.9623 -6.1383 -6.3428
-6.4904 -6.6931 -6.8407 -7.0049 -7.2038 -7.3506
-7.5092 -7.6587 -7.7990 -7.9090 -8.0328 -8.1566
-8.2519 -8.3244 -8.4023 -8.5188 -8.6013 -8.6912
-8.7700 -8.8324 -8.9323 -8.9956 -9.0754 -9.1148
-9.1579 -9.2166 -9.2193 -9.2193 -9.2056 -9.2212
-9.1992 -9.1854 -9.1597 -9.1029 -9.0598 -8.9754
-8.9167 -8.8232 -8.6802 -8.5362 -8.3620 -8.1364
-7.9319 -7.6935 -7.4111 -7.1552 -6.8013 -6.4657
-6.1209 -5.7046 -5.3130 -4.8628 -4.4062 -3.9422
-3.4883 -3.0454 -2.5401 -2.0514 -1.5626 -1.0931
-0.6833 -0.2459 0.2218 0.6491 1.0434 1.4478
1.8375 2.1988 2.5839 2.9727 3.3129 3.6632
3.9997 4.2656 4.5811 4.9158 5.1753 5.4916
5.7951 6.0583 6.3765 6.5929 6.8377 7.1284
7.3127 7.5732 7.8198 8.0041 8.2132 8.4324
8.6268 8.7799 8.9349 9.0724 9.2008 9.3319
9.4676 9.5666 9.6822 9.7867 9.8289 9.9224
9.9930 10.0169 10.0462 10.0444 10.0068 9.9545
9.8509 9.7097 9.5401 9.3484 9.1494 8.8826
8.6231 8.3498 8.0793 7.7905 7.4484 7.1348
6.7561 6.3948 6.0290 5.6136 5.2376 4.8690
4.5059 4.1684 3.8842 3.5852 3.2918 3.0736
2.8636 2.6664 2.5170 2.3904 2.2584 2.1392
2.0218 1.9283 1.8733 1.7770 1.7027 1.6486
1.5853 1.5340 1.4891 1.4725 1.4120 1.3946
1.4010 1.3524 1.3478 1.3368 1.2937 1.2607
1.2140 1.1947 1.1782 1.1287 1.1186 1.0727
1.0260 1.0196 0.9710 0.9288 0.8994 0.8655
0.8224 0.7701 0.7720 0.7802 0.7564 0.7738
0.7692 0.7371 0.7316 0.7234 0.7096 0.6968
0.6812 0.6601 0.6473 0.6216 0.5794 0.5602
0.4905 0.4070 0.3667 0.3025 0.2035 0.0852
0.0045 -0.1266 -0.2697 -0.3972 -0.5741 -0.7144
-0.9134 -1.0931 -1.2949 -1.5012 -1.6791 -1.9212
-2.1009 -2.3118 -2.5465 -2.7565 -2.9628 -3.1572
-3.3461 -3.5213 -3.7111 -3.9064 -4.0788 -4.2273
-4.4144 -4.5813 -4.7473 -4.9389 -5.0994 -5.2461
-5.3910 -5.5276 -5.6514 -5.8165 -5.9476 -6.0549
-6.1814 -6.2859 -6.3896 -6.4693 -6.5473 -6.6188
-6.6931 -6.7435 -6.7719 -6.7985 -6.7930 -6.7857
-6.7371 -6.6656 -6.6078 -6.5216 -6.3749 -6.2199
-6.0943 -5.9237 -5.7128 -5.4992 -5.2718 -5.0141
-4.7298 -4.4529 -4.1549 -3.8376 -3.5066 -3.1802
-2.8455 -2.4732 -2.1311 -1.7662 -1.4113 -1.0739
-0.7089 -0.3733 -0.0194 0.2970 0.6152 0.9701
1.2983 1.5918 1.8852 2.2144 2.4821 2.7581
3.0718 3.3404 3.6284 3.9337 4.1960 4.4885
4.7966 5.0487 5.3128 5.5558 5.7796 6.0354
6.2784 6.5131 6.7589 6.9973 7.2091 7.3944
7.5869 7.7841 7.9143 8.0362 8.1564 8.2453
8.3278 8.3783 8.4250 8.4617 8.4874 8.4966
8.4773 8.4434 8.3929 8.3893 8.3489 8.2581
8.2105 8.1224 8.0262 7.9179 7.7401 7.5924
7.4191 7.2247 7.0606 6.8295 6.5975 6.3857
6.1381 5.9061 5.6732 5.4256 5.2138 5.0001
4.7929 4.5985 4.3720 4.1859 4.0291 3.8402
3.6595 3.4560 3.2597 3.1084 2.9159 2.7270
2.5656 2.3684 2.1924 2.0337 1.8714 1.7449
1.6000 1.4194 1.2846 1.1966 1.1058 0.9948
0.8765 0.7738 0.6968 0.6189 0.5162 0.4226
0.3429 0.2246 0.1200 0.0467 -0.0432 -0.0991
-0.1817 -0.2880 -0.3751 -0.4476 -0.5145 -0.6163
-0.6722 -0.7658 -0.8584 -0.9024 -1.0106 -1.0867
-1.1573 -1.2233 -1.2582 -1.3297 -1.3517 -1.3251
-1.3260 -1.2738 -1.2224 -1.1995 -1.1316 -1.0757
-0.9849 -0.8749 -0.8098 -0.7107 -0.5906 -0.4879
-0.3660 -0.2486 -0.1376 -0.0175 0.0861 0.1750
0.2722 0.3649 0.4070 0.4391 0.4786 0.4850
0.4547 0.4281 0.4061 0.3401 0.3254 0.2952
0.1971 0.1576 0.0843 0.0045 -0.0414 -0.1248
-0.1862 -0.2568 -0.3650 -0.4687 -0.5769 -0.6970
-0.8144 -0.9143 -1.0473 -1.1995 -1.3059 -1.4306
-1.5920 -1.7616 -1.9010 -2.0220 -2.1926 -2.3338
-2.4952 -2.6501 -2.7859 -2.9757 -3.1297 -3.3287
-3.5048 -3.6634 -3.8468 -3.9999 -4.1466 -4.2787
-4.4538 -4.6464 -4.8215 -4.9196 -5.0709 -5.2204
-5.3506 -5.5450 -5.6321 -5.7999 -5.9567 -6.0356
-6.1438 -6.2483 -6.3758 -6.4345 -6.4858 -6.5381
-6.5739 -6.5977 -6.6197 -6.6435 -6.6353 -6.6105
-6.5849 -6.5784 -6.5583 -6.5253 -6.5225 -6.5207
-6.5014 -6.4886 -6.4904 -6.5170 -6.5060 -6.5060
-6.5234 -6.5271 -6.5858 -6.5986 -6.5959 -6.6390
-6.6399 -6.6078 -6.6078 -6.6023 -6.5509 -6.4840
-6.4253 -6.3244 -6.1768 -6.0310 -5.8660 -5.7247
-5.5579 -5.3772 -5.1938 -4.9912 -4.8059 -4.5510
-4.2979 -4.0595 -3.8083 -3.5570 -3.2663 -2.9812
-2.7042 -2.4301 -2.1614 -1.9285 -1.6864 -1.4406
-1.2380 -1.0427 -0.8529 -0.6768 -0.5154 -0.2898
-0.0753 0.0824 0.2668 0.4593 0.6400 0.8068
1.0141 1.2011 1.3763 1.5689 1.7293 1.9320
2.0952 2.2447 2.4794 2.6059 2.7554 2.9755
3.0773 3.3010 3.4835 3.6302 3.8530 3.9356
4.1501 4.3354 4.4637 4.6590 4.8058 5.0093
5.1634 5.3339 5.5366 5.7264 5.8970 6.0758
6.2702 6.4572 6.6599 6.8323 7.0496 7.2266
7.4072 7.6245 7.7942 7.9932 8.1784 8.3499
8.5259 8.6497 8.7918 8.9248 9.0504 9.1705
9.2549 9.3329 9.3750 9.4181 9.4181 9.3870
9.3503 9.2852 9.2026 9.0926 8.9486 8.7726
8.5608 8.3636 8.2169 7.9684 7.7080 7.4971
7.2302 6.9762 6.6856 6.3793 6.1125 5.8190
5.4825 5.1377 4.7847 4.4142 4.0098 3.6027
3.2286 2.7903 2.3593 1.9512 1.4918 1.0654
0.6290 0.1870 -0.2110 -0.6126 -0.9822 -1.3361
-1.7102 -2.0623 -2.3760 -2.6483 -2.9087 -3.1838
-3.4222 -3.6240 -3.8440 -3.9972 -4.1540 -4.3300
-4.4446 -4.5501 -4.6088 -4.6895 -4.7619 -4.7665
-4.7793 -4.7913 -4.7637 -4.7335 -4.6931 -4.6152
-4.5868 -4.5107 -4.4052 -4.3484 -4.2447 -4.1338
-4.0082 -3.8844 -3.7642 -3.5845 -3.4149 -3.2370
-3.0591 -2.9014 -2.6749 -2.4842 -2.2778 -2.0376
-1.8249 -1.5580 -1.3535 -1.1481 -0.9152 -0.7254
-0.5328 -0.3366 -0.1514 0.0036 0.1787 0.3420
0.4712 0.5850 0.6996 0.7913 0.8692 0.9646
1.0104 1.0774 1.1250 1.1388 1.1874 1.1938
1.1764 1.1828 1.1764 1.1480 1.1296 1.0865
1.0609 1.0499 0.9829 0.9196 0.8536 0.7757
0.6922 0.5886 0.4667 0.3328 0.1934 0.0421
-0.0844 -0.2256 -0.3870 -0.5282 -0.7080 -0.8574
-1.0115 -1.2206 -1.3939 -1.6066 -1.8230 -2.0348
-2.2778 -2.4869 -2.6996 -2.9408 -3.1636 -3.3837
-3.6322 -3.8715 -4.1090 -4.3493 -4.6198 -4.8793
-5.1562 -5.3735 -5.4982 -5.7532 -5.9842 -6.1410
-6.3327 -6.4757 -6.6435 -6.7994 -6.8682 -6.9709
-7.0791 -7.1460 -7.1699 -7.1442 -7.1625 -7.1240
-7.0305 -7.0021 -6.8865 -6.7270 -6.5858 -6.3813
-6.2162 -6.0182 -5.7651 -5.5422 -5.2974 -5.0746
-4.8756 -4.6629 -4.4428 -4.2356 -4.0237 -3.8018
-3.6194 -3.4250 -3.1847 -2.9536 -2.7849 -2.5786
-2.3484 -2.1641 -1.9532 -1.7827 -1.5965 -1.4012
-1.2242 -1.0023 -0.8079 -0.5878 -0.3733 -0.1532
0.0898 0.3007 0.5483 0.7849 1.0132 1.2507
1.5001 1.7504 1.9788 2.2456 2.4941 2.7096
2.9223 3.1690 3.4138 3.5835 3.8274 4.0960
4.3088 4.5454 4.7352 4.9222 5.0955 5.2459
5.4403 5.5669 5.6705 5.7952 5.8750 5.9859
6.0804 6.1620 6.2491 6.2408 6.2784 6.3545
6.3509 6.3096 6.3142 6.3252 6.2638 6.2353
6.2124 6.1977 6.1226 5.9960 5.9245 5.8172
5.6925 5.5238 5.3532 5.1781 4.9745 4.7664
4.5188 4.3216 4.1217 3.8622 3.6165 3.4065
3.1708 2.9086 2.6527 2.3712 2.1328 1.8889
1.6028 1.3525 1.0682 0.7775 0.4804 0.2072
-0.0248 -0.3228 -0.5860 -0.8272 -1.0748 -1.2774
-1.4984 -1.7047 -1.8890 -2.0880 -2.2558 -2.4264
-2.5859 -2.7070 -2.8454 -2.9527 -3.0352 -3.1407
-3.2461 -3.3158 -3.3828 -3.4305 -3.4791 -3.5597
-3.5708 -3.6056 -3.6313 -3.6478 -3.6936 -3.6881
-3.6991 -3.6771 -3.6505 -3.6377 -3.6111 -3.5542
-3.4946 -3.4534 -3.3553 -3.2544 -3.1673 -3.0655
-2.9600 -2.8839 -2.7932 -2.6455 -2.4713 -2.3420
-2.2659 -2.1164 -1.9789 -1.8542 -1.6726 -1.5360
-1.4049 -1.3012 -1.1701 -0.9931 -0.8923 -0.7593
-0.6190 -0.5282 -0.4182 -0.2559 -0.1816 -0.1459
-0.0065 0.1155 0.2072 0.2539 0.3401 0.4337
0.4859 0.5355 0.5951 0.6923 0.7399 0.7592
0.7574 0.8234 0.8601 0.8500 0.8665 0.8280
0.8481 0.8087 0.7647 0.7867 0.7830 0.7885
0.8078 0.8518 0.8280 0.8225 0.8958 0.9362
0.9719 0.9839 0.9453 1.0049 1.0526 0.9793
0.9811 1.0049 1.0031 1.0178 0.9756 0.9857
1.0233 0.9921 0.9673 0.9316 0.9178 0.9132
0.8793 0.8601 0.8390 0.8271 0.7876 0.7418
0.7335 0.7161 0.6868 0.6482 0.6437 0.6125
0.5758 0.5620 0.4887 0.4575 0.4117 0.3530
0.3301 0.2558 0.2163 0.1769 0.1256 0.0981
0.0504 -0.0129 -0.0752 -0.1367 -0.2128 -0.2852
-0.3769 -0.4319 -0.5108 -0.6218 -0.6768 -0.7951
-0.9051 -1.0005 -1.1188 -1.2270 -1.3462 -1.4333
-1.5360 -1.6744 -1.7955 -1.8936 -2.0431 -2.1962
-2.3172 -2.4805 -2.6400 -2.7941 -2.9674 -3.1104
-3.2654 -3.4277 -3.5542 -3.7193 -3.8779 -4.0146
-4.1448 -4.2649 -4.4098 -4.5244 -4.6207 -4.7032
-4.7986 -4.8958 -4.9700 -5.0645 -5.1259 -5.1919
-5.2745 -5.3643 -5.4395 -5.4817 -5.5798 -5.6468
-5.7054 -5.8008 -5.8760 -5.9659 -6.0337 -6.1071
-6.1759 -6.2318 -6.3189 -6.3748 -6.4225 -6.4812
-6.5509 -6.6132 -6.6252 -6.6518 -6.6747 -6.6646
-6.6692 -6.6408 -6.5885 -6.5527 -6.4904 -6.4244
-6.3455 -6.2235 -6.1071 -5.9824 -5.8347 -5.6871
-5.5422 -5.3735 -5.1809 -5.0214 -4.8756 -4.6812
-4.4831 -4.3052 -4.1163 -3.9311 -3.7413 -3.5625
-3.3534 -3.1508 -2.9775 -2.7620 -2.5657 -2.3686
-2.1916 -2.0238 -1.8184 -1.6295 -1.4525 -1.2701
-1.0683 -0.8721 -0.6759 -0.4805 -0.3109 -0.1422
0.0375 0.2384 0.4025 0.5465 0.6950 0.8381
0.9912 1.1022 1.2241 1.3415 1.4313 1.5441
1.6450 1.7339 1.8165 1.9109 1.9834 2.0237
2.0961 2.1713 2.1998 2.2282 2.2759 2.3208
2.3557 2.3749 2.4024 2.4024 2.4217 2.4758
2.4996 2.5170 2.5363 2.5812 2.6207 2.6170
2.6372 2.6711 2.6748 2.6803 2.7050 2.7252
2.7289 2.7380 2.7417 2.7490 2.7527 2.7252
2.7289 2.7133 2.7059 2.7307 2.7050 2.7179
2.7399 2.7426 2.7509 2.7380 2.7775 2.8068
2.7967 2.8444 2.8884 2.8893 2.9150 2.9361
2.9425 2.9554 2.9664 3.0095 3.0250 3.0085
3.0351 3.0498 3.0406 3.0516 3.0526 3.0095
2.9645 2.9370 2.8774 2.8141 2.7811 2.7041
2.6097 2.5381 2.4602 2.3813 2.3098 2.2594
2.1796 2.1017 2.0127 1.9173 1.8522 1.7660
1.7129 1.6789 1.6202 1.5460 1.4680 1.3873
1.3461 1.2956 1.2131 1.1535 1.0820 1.0178
0.9582 0.9178 0.8427 0.7996 0.7785 0.7033
0.6739 0.6318 0.5868 0.5364 0.5235 0.4814
0.3622 0.3402 0.2961 0.2072 0.1513 0.0761
0.0155 -0.0560 -0.1513 -0.1917 -0.2623 -0.3366
-0.4301 -0.5291 -0.5713 -0.6593 -0.7116 -0.7850
-0.8886 -0.9409 -1.0316 -1.0986 -1.1683 -1.2279
-1.2471 -1.3617 -1.4232 -1.4158 -1.4819 -1.5057
-1.5002 -1.5451 -1.5332 -1.5277 -1.5607 -1.5195
-1.4975 -1.4672 -1.4443 -1.4085 -1.3553 -1.3168
-1.2719 -1.2435 -1.1811 -1.1279 -1.0463 -1.0096
-0.9253 -0.8647 -0.8354 -0.7244 -0.7070 -0.6080
-0.5401 -0.4989 -0.3916 -0.3567 -0.2384 -0.1128
-0.0606 0.0476 0.1641 0.2549 0.3530 0.4337
0.5685 0.7235 0.8161 0.9188 1.0499 1.1691
1.2865 1.4323 1.5863 1.7184 1.8330 1.9797
2.1466 2.2750 2.4318 2.6005 2.7206 2.8582
2.9820 3.1076 3.2295 3.3111 3.4249 3.5340
3.6477 3.7458 3.8026 3.9274 4.0548 4.1428
4.2391 4.3134 4.4078 4.4950 4.5390 4.6096
4.6884 4.7398 4.7719 4.8021 4.8379 4.8966
4.9333 4.9562 5.0195 5.0323 5.0534 5.1093
5.1286 5.1469 5.1442 5.1726 5.2001 5.1891
5.2056 5.2102 5.2029 5.2047 5.2056 5.1561
5.1524 5.1414 5.0488 5.0131 4.9149 4.7976
4.6967 4.5491 4.4161 4.2630 4.0842 3.8953
3.7027 3.4835 3.2460 3.0086 2.7692 2.5033
2.2594 1.9953 1.6854 1.4314 1.1223 0.8115
0.5364 0.2347 -0.0440 -0.3375 -0.6456 -0.9152
-1.1563 -1.4571 -1.7194 -1.9458 -2.1870 -2.3686
-2.5556 -2.7675 -2.9408 -3.0600 -3.1948 -3.3424
-3.4607 -3.5744 -3.6835 -3.7669 -3.8623 -3.9393
-3.9999 -4.0485 -4.0595 -4.1282 -4.1447 -4.1603
-4.2007 -4.1704 -4.1814 -4.1695 -4.1402 -4.1301
-4.0943 -4.0448 -3.9852 -3.9393 -3.8623 -3.7605
-3.6450 -3.5230 -3.4038 -3.2241 -3.0554 -2.8958
-2.6904 -2.4878 -2.2787 -2.0614 -1.8165 -1.5818
-1.3471 -1.0646 -0.8290 -0.5575 -0.2522 -0.0064
0.2595 0.5236 0.7858 1.0426 1.2975 1.5552
1.7853 2.0146 2.2200 2.4235 2.6308 2.8444
3.0278 3.1883 3.3799 3.5092 3.6633 3.8403
3.9393 4.1062 4.2556 4.3666 4.5069 4.6224
4.7499 4.8673 4.9516 5.0617 5.1772 5.2478
5.3001 5.3560 5.3982 5.4156 5.4092 5.3936
5.3688 5.3074 5.2377 5.1442 5.0534 4.9645
4.8398 4.7325 4.6087 4.4849 4.3794 4.2602
4.1199 3.9952 3.8806 3.7641 3.6624 3.5294
3.4239 3.3148 3.2259 3.1599 3.0572 3.0021
2.9425 2.8747 2.8288 2.7628 2.6913 2.6280
2.5317 2.4244 2.2988 2.1613 2.0613 1.9054
1.7505 1.5845 1.4002 1.2269 0.9986 0.7950
0.5878 0.3759 0.1595 -0.0981 -0.3283 -0.5997
-0.8666 -1.0793 -1.3461 -1.6396 -1.8816 -2.1210
-2.4025 -2.6767 -2.9178 -3.1938 -3.4643 -3.7165
-3.9696 -4.1988 -4.4712 -4.7013 -4.9324 -5.1717
-5.3597 -5.5835 -5.7513 -5.9438 -6.1538 -6.2987
-6.4913 -6.6572 -6.8021 -6.9663 -7.1194 -7.2514
-7.3743 -7.5146 -7.6265 -7.7393 -7.8695 -7.9602
-8.0290 -8.1079 -8.1666 -8.1913 -8.2234 -8.2610
-8.2583 -8.2381 -8.2372 -8.2152 -8.1464 -8.0437
-7.9456 -7.8401 -7.6952 -7.5192 -7.3395 -7.1616
-6.9479 -6.7388 -6.5509 -6.3684 -6.1951 -5.9897
-5.8191 -5.6678 -5.4982 -5.3450 -5.1662 -4.9957
-4.8205 -4.6344 -4.4455 -4.2401 -4.0567 -3.8825
-3.7092 -3.5129 -3.3011 -3.0948 -2.8729 -2.6592
-2.4639 -2.2246 -1.9834 -1.7377 -1.4690 -1.2031
-0.9225 -0.6694 -0.4090 -0.1587 0.1146 0.3915
0.6189 0.8821 1.1471 1.3837 1.6129 1.8348
2.0595 2.2732 2.4758 2.6830 2.8545 3.0232
3.1718 3.3213 3.5377 3.6825 3.8063 3.9851
4.1282 4.2584 4.4014 4.5252 4.6417 4.7857
4.9232 5.0287 5.1469 5.2707 5.3679 5.4862
5.5935 5.6540 5.7421 5.8237 5.8860 5.9887
6.0722 6.1382 6.2317 6.2776 6.3308 6.3674
6.3656 6.3931 6.3693 6.3601 6.3408 6.2803
6.1840 6.0208 5.8805 5.6944 5.4541 5.2496
5.0452 4.7994 4.5858 4.3345 4.0402 3.7724
3.4386 3.0994 2.7381 2.3566 1.9825 1.6056
1.2122 0.8051 0.4805 0.1329 -0.2366 -0.5759
-0.9023 -1.1673 -1.4846 -1.8009 -2.0623 -2.3658
-2.6574 -2.9288 -3.2287 -3.5258 -3.7789 -4.0209
-4.2749 -4.5372 -4.7747 -4.9792 -5.1956 -5.3973
-5.5752 -5.7558 -5.9567 -6.1630 -6.3510 -6.5105
-6.6710 -6.8663 -7.0662 -7.2303 -7.3816 -7.5513
-7.7026 -7.8456 -7.9822 -8.0950 -8.2179 -8.3353
-8.4444 -8.5453 -8.6150 -8.6709 -8.7048 -8.7268
-8.7332 -8.6911 -8.6498 -8.5691 -8.4288 -8.2913
-8.1198 -7.9245 -7.6833 -7.4357 -7.2083 -6.9186
-6.6691 -6.4261 -6.1621 -5.9099 -5.6330 -5.4230
-5.1387 -4.8425 -4.6261 -4.3584 -4.1154 -3.8724
-3.6441 -3.4212 -3.1920 -2.9939 -2.7913 -2.5950
-2.4071 -2.2172 -2.0348 -1.8761 -1.7056 -1.5561
-1.3975 -1.2159 -1.0719 -0.8785 -0.7024 -0.5658
-0.3631 -0.2091 -0.0660 0.1036 0.2439 0.4025
0.5355 0.6648 0.7978 0.9298 1.0573 1.1490
1.2691 1.3883 1.4506 1.5240 1.5873 1.6560
1.7184 1.7496 1.8174 1.8440 1.8532 1.8669
1.8376 1.8119 1.7459 1.6735 1.6185 1.5203
1.4158 1.3085 1.2058 1.0939 0.9536 0.8271
0.7061 0.5649 0.4429 0.3319 0.1834 0.0101
-0.1293 -0.2384 -0.4026 -0.5594 -0.6960 -0.8436
-0.9830 -1.1279 -1.2581 -1.3672 -1.4717 -1.5644
-1.6634 -1.7633 -1.7716 -1.8174 -1.8954 -1.8899
-1.9321 -1.9486 -1.8981 -1.9036 -1.8945 -1.8486
-1.8138 -1.7340 -1.6900 -1.6377 -1.5286 -1.4635
-1.3837 -1.3168 -1.2232 -1.1040 -1.0600 -0.9637
-0.8574 -0.7684 -0.6547 -0.5731 -0.4603 -0.3677
-0.2678 -0.1614 -0.0825 0.0220 0.0944 0.1733
0.2668 0.3741 0.4658 0.5630 0.6868 0.7886
0.9234 1.0472 1.1866 1.3342 1.4488 1.6130
1.7597 1.8816 2.0192 2.1375 2.2842 2.4006
2.4951 2.5987 2.6546 2.7454 2.8124 2.8426
2.9160 2.9682 3.0040 3.0269 3.0508 3.0645
3.0498 3.0370 3.0040 2.9820 2.9407 2.8564
2.7995 2.7207 2.6180 2.5153 2.3814 2.2558
2.1127 1.9596 1.8220 1.6570 1.4818 1.3204
1.1435 0.9472 0.7758 0.5832 0.3980 0.2320
0.0514 -0.1027 -0.2595 -0.4126 -0.5428 -0.6758
-0.8115 -0.9335 -1.0591 -1.1618 -1.2783 -1.3938
-1.4589 -1.5799 -1.6643 -1.6826 -1.7432 -1.8119
-1.8679 -1.8807 -1.9000 -1.9449 -1.9266 -1.8871
-1.8954 -1.8339 -1.7780 -1.7606 -1.6936 -1.6652
-1.6175 -1.5543 -1.4992 -1.4286 -1.3553 -1.2544
-1.1462 -1.0408 -0.9234 -0.8014 -0.6510 -0.4988
-0.3668 -0.2109 -0.0440 0.1128 0.2742 0.4732
0.6529 0.8069 1.0123 1.1976 1.3736 1.5873
1.7688 1.9605 2.1622 2.3245 2.5198 2.7170
2.8931 3.0801 3.2626 3.4451 3.6138 3.7834
3.9586 4.1163 4.2593 4.4079 4.5491 4.6701
4.8022 4.9186 5.0314 5.1350 5.2102 5.3203
5.3936 5.4221 5.5367 5.5972 5.6100 5.6962
5.7558 5.7870 5.8109 5.8595 5.8815 5.8980
5.9246 5.8879 5.8943 5.8503 5.7879 5.7641
5.6531 5.5514 5.4028 5.2322 5.1075 4.9388
4.7655 4.5720 4.4051 4.2190 3.9512 3.7101
3.4836 3.2598 3.0132 2.7922 2.5721 2.3025
2.1045 1.9027 1.6698 1.4672 1.2709 1.0912
0.9051 0.7244 0.5539 0.3897 0.2183 0.0440
-0.1146 -0.2980 -0.4722 -0.6079 -0.7583 -0.9399
-1.0939 -1.2214 -1.3489 -1.4772 -1.6450 -1.7615
-1.8752 -2.0320 -2.1640 -2.3135 -2.4364 -2.5657
-2.6913 -2.8096 -2.9435 -3.0452 -3.1424 -3.2167
-3.3112 -3.3964 -3.4432 -3.5019 -3.5432 -3.5899
-3.6303 -3.6422 -3.6560 -3.6752 -3.6853 -3.6688
-3.6578 -3.6459 -3.5817 -3.5404 -3.4735 -3.4019
-3.3717 -3.2882 -3.2296 -3.1424 -3.0535 -2.9792
-2.8701 -2.8133 -2.7280 -2.6335 -2.5602 -2.4831
-2.3960 -2.2796 -2.2062 -2.1356 -2.0357 -1.9559
-1.8523 -1.7569 -1.6542 -1.5304 -1.4176 -1.2773
-1.1471 -0.9967 -0.8638 -0.7244 -0.5392 -0.3659
-0.1916 -0.0082 0.2008 0.3934 0.6052 0.8400
1.0307 1.2737 1.5121 1.7148 1.9302 2.1283
2.3750 2.5721 2.7674 2.9948 3.1516 3.3387
3.4955 3.6477 3.8174 3.9402 4.0604 4.1768
4.2768 4.3932 4.4886 4.5464 4.6188 4.6555
4.6821 4.6995 4.7087 4.7004 4.6821 4.6867
4.6619 4.6426 4.5766 4.5299 4.4858 4.4088
4.3795 4.2979 4.2199 4.1521 4.0512 3.9668
3.8843 3.7807 3.6688 3.5680 3.4322 3.3011
3.1691 3.0159 2.8802 2.7326 2.5905 2.3970
2.2154 2.0467 1.8587 1.6863 1.4553 1.2269
0.9876 0.7373 0.4732 0.2118 -0.0724 -0.3979
-0.6629 -0.9720 -1.3250 -1.6569 -1.9852 -2.3300
-2.7050 -3.0645 -3.4212 -3.8082 -4.1676 -4.5087
-4.8783 -5.2396 -5.6210 -5.9685 -6.2977 -6.6425
-6.9543 -7.2807 -7.6044 -7.9134 -8.1894 -8.4737
-8.7350 -8.9826 -9.2669 -9.4961 -9.7034 -9.8987
-10.1307 -10.3205 -10.4406 -10.6203 -10.7625 -10.8487
-10.9367 -11.0476 -11.1036 -11.1045 -11.1595 -11.1650
-11.1614 -11.1797 -11.1412 -11.0862 -11.0119 -10.9633
-10.8890 -10.7405 -10.5653 -10.3462 -10.0958 -9.7786
-9.4283 -9.0881 -8.7259 -8.3426 -7.9593 -7.5998
-7.2248 -6.8103 -6.4169 -6.0318 -5.6173 -5.2020
-4.7994 -4.3767 -3.9530 -3.5432 -3.1204 -2.7160
-2.3126 -1.9009 -1.5387 -1.2040 -0.8839 -0.5685
-0.2586 0.0413 0.3347 0.6226 0.9372 1.2214
1.5231 1.8450 2.1522 2.4401 2.7335 3.0609
3.3277 3.6083 3.8917 4.1768 4.4492 4.6793
4.9663 5.2075 5.4551 5.7183 5.9585 6.2162
6.4491 6.6802 6.9241 7.1652 7.3651 7.5375
7.7383 7.9016 8.0455 8.2188 8.3215 8.4206
8.5260 8.5994 8.6810 8.7195 8.7544 8.7864
8.7947 8.7938 8.7672 8.7103 8.6388 8.5581
8.4783 8.3720 8.2271 8.0960 7.9355 7.7457
7.5394 7.3386 7.1313 6.8709 6.6242 6.3702
6.0887 5.7935 5.4909 5.1883 4.8316 4.4767
4.1521 3.7972 3.4020 3.0196 2.6492 2.2659
1.8835 1.4974 1.1288 0.7749 0.4356 0.1128
-0.2155 -0.5025 -0.7748 -1.0600 -1.3241 -1.5955
-1.8183 -2.0338 -2.2484 -2.4244 -2.5767 -2.7197
-2.8628 -2.9434 -3.0434 -3.1296 -3.1690 -3.2240
-3.2479 -3.2433 -3.2295 -3.1461 -3.0718 -3.0306
-2.9013 -2.7536 -2.6344 -2.5161 -2.3713 -2.2355
-2.0833 -1.9293 -1.8036 -1.6285 -1.4690 -1.3002
-1.1242 -0.9545 -0.7574 -0.5850 -0.3952 -0.2173
-0.0421 0.1559 0.3338 0.5126 0.6639 0.8106
0.9482 1.0793 1.2343 1.3397 1.4488 1.5754
1.6973 1.8560 1.9697 2.0641 2.1989 2.3117
2.4291 2.5712 2.7033 2.8399 2.9582 3.1021
3.2654 3.3919 3.5515 3.7064 3.8577 4.0164
4.1759 4.3566 4.5115 4.6848 4.8453 4.9948
5.1708 5.3341 5.4579 5.5981 5.7394 5.8301
5.9585 6.0429 6.1034 6.1823 6.2125 6.2538
6.2574 6.2630 6.2602 6.1795 6.1190 6.0154
5.8897 5.7705 5.6055 5.4588 5.2891 5.1048
4.9618 4.8261 4.6674 4.4923 4.3217 4.1787
4.0283 3.8421 3.6679 3.4781 3.2846 3.1122
2.8977 2.7335 2.5694 2.3218 2.1366 1.9532
1.7432 1.5516 1.3517 1.1380 0.9372 0.7465
0.5310 0.3072 0.0927 -0.0962 -0.3108 -0.5245
-0.7280 -0.9426 -1.1242 -1.2956 -1.5029 -1.6789
-1.8165 -1.9843 -2.1420 -2.3162 -2.4657 -2.6051
-2.7931 -2.9260 -3.0957 -3.2836 -3.4248 -3.5982
-3.7421 -3.9072 -4.0933 -4.2217 -4.3684 -4.5371
-4.6967 -4.8782 -5.0259 -5.1533 -5.3202 -5.4468
-5.5596 -5.6916 -5.7668 -5.8612 -5.9566 -5.9970
-6.0501 -6.0859 -6.0969 -6.0868 -6.0456 -5.9896
-5.8933 -5.7485 -5.6109 -5.4624 -5.2826 -5.1130
-4.9223 -4.7224 -4.5445 -4.3391 -4.1419 -3.9576
-3.7284 -3.5193 -3.3350 -3.1342 -2.9673 -2.7986
-2.6152 -2.4712 -2.3410 -2.2163 -2.0476 -1.9100
-1.8477 -1.7294 -1.6221 -1.5432 -1.4598 -1.4002
-1.3378 -1.2828 -1.2204 -1.1553 -1.1141 -1.0756
-1.0325 -0.9811 -0.9279 -0.8573 -0.8106 -0.7904
-0.7390 -0.7033 -0.6400 -0.5685 -0.5391 -0.5043
-0.4548 -0.4007 -0.3557 -0.3264 -0.2741 -0.2017
-0.1898 -0.1540 -0.1320 -0.1283 -0.0788 -0.0825
-0.0935 -0.1008 -0.0999 -0.1164 -0.1641 -0.1714
-0.2017 -0.2750 -0.3438 -0.3897 -0.4887 -0.6079
-0.6629 -0.7656 -0.9059 -1.0169 -1.1535 -1.2810
-1.4130 -1.5854 -1.7284 -1.8917 -2.0897 -2.2566
-2.4171 -2.5831 -2.7610 -2.9123 -3.0452 -3.2103
-3.3524 -3.4579 -3.5780 -3.6633 -3.7577 -3.9007
-3.9824 -4.0530 -4.1300 -4.1960 -4.2611 -4.3235
-4.4032 -4.4674 -4.5142 -4.5683 -4.6224 -4.6618
-4.7370 -4.8012 -4.8296 -4.8947 -4.9415 -4.9672
-5.0240 -5.0882 -5.1047 -5.1258 -5.1579 -5.1717
-5.1854 -5.1671 -5.1625 -5.1350 -5.0974 -5.0607
-4.9929 -4.9443 -4.8892 -4.7875 -4.6426 -4.5078
-4.4142 -4.2831 -4.0759 -3.8916 -3.6843 -3.5074
-3.2836 -3.0287 -2.8875 -2.6133 -2.3767 -2.1787
-1.9027 -1.6661 -1.4011 -1.1810 -0.9609 -0.7335
-0.4887 -0.2246 -0.0385 0.1679 0.3943 0.5741
0.7703 0.9794 1.1435 1.3187 1.5250 1.6827
1.8606 2.0623 2.2054 2.3503 2.5336 2.7235
2.9014 3.0517 3.1948 3.3681 3.5185 3.6496
3.8165 3.9760 4.1209 4.2264 4.3612 4.5464
4.6583 4.7674 4.9003 5.0269 5.1223 5.2030
5.3148 5.3964 5.4570 5.4753 5.5257 5.6046
5.6339 5.6559 5.6550 5.6633 5.6743 5.6642
5.6431 5.6165 5.5652 5.5101 5.4597 5.3772
5.2717 5.1837 5.0975 4.9664 4.8417 4.6931
4.5418 4.3868 4.1897 4.0191 3.8147 3.6010
3.3809 3.1379 2.8931 2.6299 2.3961 2.1366
1.8899 1.6313 1.3324 1.1050 0.8217 0.5392
0.3091 0.0358 -0.2081 -0.4520 -0.7060 -0.9591
-1.2094 -1.4323 -1.6808 -1.9118 -2.1383 -2.3419
-2.5638 -2.8086 -2.9902 -3.2185 -3.3900 -3.5514
-3.7623 -3.9209 -4.1061 -4.2574 -4.3867 -4.5408
-4.6719 -4.7865 -4.8993 -5.0249 -5.0919 -5.1689
-5.2899 -5.3642 -5.4660 -5.5623 -5.5990 -5.6448
-5.6907 -5.7246 -5.7714 -5.7833 -5.7833 -5.8181
-5.7989 -5.7814 -5.7869 -5.7475 -5.7136 -5.6952
-5.6659 -5.6265 -5.5595 -5.4935 -5.4312 -5.3440
-5.2469 -5.1414 -5.0515 -4.9268 -4.7783 -4.6316
-4.4445 -4.2822 -4.0988 -3.9108 -3.7384 -3.5505
-3.3781 -3.1809 -2.9893 -2.7930 -2.6179 -2.4492
-2.2493 -2.0870 -1.8953 -1.6862 -1.4964 -1.3085
-1.1241 -0.9142 -0.7280 -0.5373 -0.3181 -0.1329
0.0468 0.2311 0.4136 0.5851 0.7777 0.9583
1.0839 1.2471 1.4140 1.5406 1.6726 1.8001
1.9239 2.0385 2.1155 2.2173 2.3292 2.3952
2.4786 2.5401 2.5905 2.6565 2.6749 2.7134
2.7684 2.7932 2.8253 2.8564 2.8647 2.8794
2.9087 2.9371 2.9555 2.9720 3.0169 3.0197
3.0242 3.0609 3.0719 3.0866 3.1040 3.1334
3.1269 3.1343 3.1609 3.1544 3.1682 3.1444
3.1123 3.1058 3.0756 3.0343 3.0151 3.0022
2.9380 2.8959 2.8390 2.7657 2.7198 2.6281
2.5648 2.4988 2.4190 2.3402 2.2577 2.2035
2.1063 2.0257 1.9532 1.8643 1.8028 1.7093
1.6506 1.5910 1.4892 1.4324 1.3746 1.3141
1.2747 1.2251 1.1848 1.1756 1.1555 1.1316
1.1261 1.1316 1.1270 1.1399 1.1976 1.2041
1.2041 1.2572 1.3233 1.3526 1.3682 1.4232
1.4874 1.5699 1.6414 1.7093 1.8047 1.8964
1.9844 2.0788 2.1843 2.2980 2.3750 2.4594
2.5520 2.6189 2.7226 2.8088 2.8959 2.9766
3.0655 3.1480 3.2296 3.3250 3.3635 3.4571
3.5432 3.6102 3.7065 3.7542 3.8064 3.9045
4.0118 4.0696 4.1384 4.2301 4.3089 4.3997
4.4731 4.6097 4.6986 4.7399 4.8811 4.9581
5.0342 5.1195 5.1947 5.3240 5.3699 5.4185
5.4799 5.4991 5.5092 5.4588 5.4368 5.3845
5.2552 5.1094 4.9517 4.8389 4.6940 4.5299
4.3823 4.2356 4.0971 3.9375 3.7633 3.5790
3.3956 3.1893 2.9729 2.7235 2.4906 2.2742
2.0302 1.8019 1.6066 1.4416 1.2545 1.1041
0.9739 0.8208 0.7006 0.5622 0.4301 0.3109
0.1514 0.0386 -0.0779 -0.2420 -0.3649 -0.4841
-0.6134 -0.7298 -0.8298 -0.9407 -1.0389 -1.1241
-1.2195 -1.3369 -1.4588 -1.5349 -1.6578 -1.8018
-1.9329 -2.0723 -2.1997 -2.3465 -2.4950 -2.6463
-2.8022 -2.9517 -3.0947 -3.2332 -3.3698 -3.5459
-3.7283 -3.8888 -4.0694 -4.2748 -4.4582 -4.6169
-4.8296 -5.0148 -5.1395 -5.3110 -5.4788 -5.6191
-5.7603 -5.8970 -6.0519 -6.1684 -6.2711 -6.4050
-6.4875 -6.5737 -6.6846 -6.7296 -6.7525 -6.8039
-6.8414 -6.8414 -6.8387 -6.8277 -6.7718 -6.7057
-6.6360 -6.5398 -6.4462 -6.3472 -6.2234 -6.0978
-5.9676 -5.8172 -5.6567 -5.4834 -5.3009 -5.1047
-4.9011 -4.6792 -4.4454 -4.2363 -4.0071 -3.7953
-3.5660 -3.3414 -3.1836 -2.9535 -2.7435 -2.5711
-2.3675 -2.1713 -1.9659 -1.7954 -1.6101 -1.4295
-1.2708 -1.1269 -0.9829 -0.7977 -0.6510 -0.5134
-0.4006 -0.2934 -0.1421 -0.0485 0.0560 0.1624
0.2174 0.3174 0.3861 0.4521 0.5273 0.5769
0.6273 0.6777 0.7245 0.7447 0.8144 0.8318
0.8685 0.9125 0.9189 0.9895 0.9546 1.0014
1.0555 1.0317 1.0867 1.1069 1.1179 1.1362
1.1958 1.2197 1.2132 1.2747 1.3077 1.3233
1.3453 1.3911 1.4278 1.4572 1.4883 1.4938
1.5461 1.5690 1.5819 1.6149 1.6140 1.6415
1.6479 1.6506 1.6791 1.6791 1.6708 1.6571
1.6369 1.6185 1.6011 1.6121 1.6075 1.5764
1.5718 1.5168 1.4737 1.4645 1.4278 1.3829
1.3123 1.2765 1.2059 1.1050 1.0500 0.9638
0.8776 0.8043 0.7318 0.6658 0.5631 0.4723
0.4402 0.3678 0.2669 0.1917 0.1120 0.0221
-0.0760 -0.1604 -0.2530 -0.3383 -0.3979 -0.5198
-0.6143 -0.6510 -0.8013 -0.8720 -0.8866 -1.0205
-1.0278 -1.0746 -1.1929 -1.1269 -1.1470 -1.1920
-1.1425 -1.1590 -1.1360 -1.0709 -1.0278 -1.0012
-0.9536 -0.8967 -0.8830 -0.8371 -0.7436 -0.6959
-0.6491 -0.5950 -0.5354 -0.4355 -0.3685 -0.3282
-0.2539 -0.1668 -0.1420 -0.0613 0.0038 0.0478
0.1532 0.1881 0.2614 0.3284 0.3788 0.4338
0.4742 0.5255 0.5870 0.6631 0.7043 0.7557
0.8171 0.8785 0.9143 0.9473 0.9739 0.9895
1.0124 1.0188 1.0583 1.0711 1.0601 1.0757
1.0647 1.0546 1.0482 1.0289 1.0216 0.9657
0.8996 0.8749 0.8364 0.8162 0.7795 0.6695
0.6035 0.5879 0.5475 0.4824 0.4081 0.3449
0.2587 0.1706 0.1156 0.0569 -0.0155 -0.1219
-0.2209 -0.2768 -0.3795 -0.4887 -0.5730 -0.6996
-0.8151 -0.9040 -1.0095 -1.1278 -1.2479 -1.3836
-1.5276 -1.6422 -1.7596 -1.8980 -2.0072 -2.1456
-2.2813 -2.3794 -2.5142 -2.6344 -2.7371 -2.8581
-2.9947 -3.1103 -3.2258 -3.3560 -3.4560 -3.5752
-3.6705 -3.7613 -3.8503 -3.9548 -4.0850 -4.1529
-4.2363 -4.3381 -4.4188 -4.4802 -4.5453 -4.6416
-4.7086 -4.7599 -4.8250 -4.8828 -4.9433 -4.9809
-5.0304 -5.0992 -5.1304 -5.1680 -5.1936 -5.2120
-5.2331 -5.2431 -5.2670 -5.2505 -5.2239 -5.2074
-5.1551 -5.1258 -5.0634 -4.9956 -4.9516 -4.8654
-4.7828 -4.6893 -4.6040 -4.5178 -4.4060 -4.2895
-4.1575 -4.0318 -3.8915 -3.7356 -3.6091 -3.4789
-3.3028 -3.1515 -3.0002 -2.8425 -2.7086 -2.5307
-2.3694 -2.2217 -2.0475 -1.8953 -1.7266 -1.5413
-1.3809 -1.2241 -1.0590 -0.8848 -0.7206 -0.5611
-0.4025 -0.2493 -0.0999 0.0560 0.2229 0.3614
0.5191 0.6640 0.8153 1.0106 1.1206 1.2637
1.4113 1.5076 1.6846 1.8001 1.8762 2.0220
2.1256 2.2219 2.3512 2.4383 2.5282 2.6364
2.7263 2.8115 2.9005 2.9738 3.0243 3.0875
3.1481 3.2067 3.2691 3.3058 3.3480 3.3755
3.4112 3.4479 3.4479 3.4818 3.4919 3.5002
3.5304 3.5121 3.5084 3.5222 3.5176 3.4947
3.4928 3.4718 3.4323 3.4011 3.3498 3.3067
3.2361 3.1536 3.0866 3.0325 2.9445 2.8354
2.7794 2.6932 2.5786 2.4677 2.3576 2.2659
2.1559 2.0615 1.9762 1.8689 1.7937 1.7002
1.5910 1.5131 1.4278 1.3352 1.2518 1.1931
1.0996 0.9840 0.9134 0.8657 0.8125 0.7254
0.6346 0.5741 0.5173 0.4503 0.3852 0.3055
0.2569 0.1927 0.1285 0.0845 -0.0045 -0.0228
-0.1053 -0.1640 -0.1925 -0.2924 -0.3016 -0.3887
-0.4465 -0.4905 -0.5785 -0.6051 -0.7041 -0.7601
-0.8004 -0.8811 -0.9260 -0.9994 -1.0728 -1.1452
-1.2140 -1.3020 -1.4148 -1.4680 -1.5587 -1.6459
-1.7036 -1.8045 -1.8357 -1.9081 -2.0053 -2.0200
-2.0759 -2.1337 -2.1841 -2.2291 -2.2740 -2.3162
-2.3345 -2.3712 -2.3748 -2.3794 -2.3638 -2.3455
-2.3253 -2.2795 -2.2602 -2.2162 -2.1575 -2.0796
-2.0016 -1.8999 -1.7926 -1.7091 -1.5881 -1.4661
-1.3378 -1.1956 -1.0361 -0.8793 -0.7335 -0.5822
-0.4547 -0.3071 -0.1604 -0.0256 0.1166 0.2550
0.4137 0.5604 0.7163 0.8721 1.0225 1.1894
1.3270 1.4819 1.6497 1.8221 1.9872 2.1275
2.3127 2.4759 2.5887 2.7666 2.9583 3.0830
3.2361 3.4085 3.5699 3.7175 3.8496 4.0293
4.1843 4.2824 4.4162 4.5776 4.6794 4.7766
4.9288 5.0517 5.1223 5.2305 5.3461 5.4267
5.5212 5.5973 5.6670 5.7266 5.7908 5.8788
5.9357 5.9788 6.0200 6.0631 6.0622 6.0778
6.1081 6.0897 6.1026 6.0897 6.0714 6.0494
5.9944 5.9733 5.9403 5.8531 5.7605 5.6707
5.5551 5.4387 5.2984 5.1434 4.9719 4.8023
4.6336 4.4144 4.2283 4.0219 3.7725 3.5534
3.3150 3.0766 2.8427 2.5942 2.3375 2.0789
1.8506 1.6094 1.3719 1.1573 0.9134 0.6539
0.4348 0.2138 -0.0439 -0.2585 -0.4730 -0.7325
-0.9563 -1.1709 -1.3845 -1.5789 -1.7761 -1.9842
-2.1988 -2.3684 -2.5426 -2.7105 -2.8636 -3.0296
-3.1561 -3.2900 -3.4248 -3.5568 -3.6742 -3.7503
-3.8502 -3.9401 -4.0162 -4.0667 -4.1052 -4.1703
-4.2033 -4.2161 -4.2143 -4.2198 -4.2253 -4.2134
-4.1712 -4.1281 -4.0978 -4.0291 -3.9768 -3.8998
-3.8071 -3.7356 -3.6219 -3.5073 -3.3679 -3.2139
-3.0892 -2.9443 -2.7893 -2.6307 -2.4766 -2.3501
-2.1997 -2.0337 -1.8797 -1.7375 -1.5743 -1.3946
-1.2873 -1.1635 -0.9783 -0.8582 -0.7344 -0.5996
-0.4795 -0.3492 -0.2530 -0.1393 -0.0457 0.0551
0.1753 0.2505 0.3330 0.4256 0.5210 0.5888
0.6585 0.7410 0.8071 0.8923 0.9437 1.0290
1.1142 1.1372 1.2041 1.2463 1.3105 1.3811
1.3838 1.4388 1.4764 1.4911 1.5406 1.5846
1.6452 1.6571 1.6424 1.7039 1.7589 1.7809
1.8093 1.8148 1.8698 1.9276 1.9285 1.9670
1.9789 2.0028 2.0358 2.0422 2.0761 2.0725
2.0853 2.1147 2.1238 2.1339 2.1550 2.1715
2.1743 2.1825 2.1853 2.2201 2.2375 2.2357
2.2650 2.2953 2.2861 2.2907 2.3595 2.3925
2.4053 2.4457 2.5135 2.5851 2.6162 2.6456
2.6878 2.7437 2.8024 2.8620 2.9060 2.9399
3.0032 3.0500 3.0958 3.1279 3.1490 3.1884
3.1976 3.2297 3.2462 3.2398 3.2425 3.2233
3.1976 3.1408 3.1160 3.0619 2.9803 2.9179
2.8180 2.7189 2.5924 2.4769 2.3476 2.1743
2.0138 1.8652 1.6837 1.4820 1.3031 1.0932
0.9272 0.7539 0.5329 0.3807 0.1927 -0.0072
-0.1732 -0.3850 -0.5482 -0.6940 -0.8866 -1.0636
-1.2415 -1.3873 -1.5129 -1.6724 -1.8421 -1.9943
-2.1309 -2.2602 -2.3950 -2.5197 -2.6426 -2.7719
-2.8801 -3.0011 -3.1066 -3.1946 -3.3046 -3.4083
-3.4917 -3.5715 -3.6403 -3.7191 -3.7998 -3.8502
-3.9190 -3.9795 -4.0217 -4.0758 -4.1327 -4.1941
-4.2610 -4.3041 -4.3720 -4.4151 -4.4444 -4.4976
-4.5160 -4.5563 -4.5453 -4.5591 -4.6022 -4.5701
-4.5563 -4.5453 -4.5150 -4.4747 -4.4261 -4.4096
-4.3454 -4.2693 -4.2372 -4.1162 -4.0070 -3.9007
-3.7778 -3.6678 -3.5018 -3.3835 -3.2551 -3.1057
-2.9479 -2.7865 -2.6563 -2.4922 -2.3281 -2.1933
-2.0896 -1.9741 -1.8586 -1.7439 -1.6376 -1.5560
-1.4698 -1.3735 -1.2387 -1.1690 -1.1122 -1.0379
-1.0150 -0.9801 -0.9508 -0.9196 -0.9352 -0.9416
-0.9205 -0.9361 -0.9278 -0.9434 -0.9471 -0.9673
-1.0021 -0.9985 -1.0397 -1.0681 -1.0920 -1.1332
-1.1745 -1.2286 -1.2662 -1.3084 -1.3735 -1.4597
-1.5129 -1.5514 -1.6183 -1.6770 -1.7412 -1.8201
-1.8806 -1.9659 -2.0557 -2.1135 -2.2033 -2.2840
-2.3913 -2.5096 -2.5995 -2.7022 -2.7682 -2.8526
-2.9323 -3.0250 -3.1295 -3.1717 -3.2487 -3.3285
-3.4000 -3.4449 -3.4825 -3.5779 -3.6210 -3.6641
-3.7035 -3.7374 -3.7594 -3.7622 -3.7961 -3.7897
-3.8108 -3.8099 -3.8007 -3.8117 -3.7824 -3.7998
-3.7760 -3.7310 -3.7549 -3.7099 -3.6788 -3.6467
-3.5889 -3.5861 -3.4908 -3.4394 -3.3826 -3.2872
-3.2716 -3.1790 -3.1047 -3.0451 -2.9653 -2.9057
-2.8122 -2.7242 -2.6160 -2.5280 -2.4564 -2.3308
-2.2281 -2.1318 -2.0080 -1.9081 -1.8008 -1.6651
-1.5275 -1.4331 -1.3405 -1.1901 -1.0764 -0.9480
-0.7949 -0.6610 -0.5363 -0.4125 -0.2309 -0.0824
0.0817 0.2441 0.3688 0.5549 0.6961 0.8520
1.0427 1.1876 1.3435 1.4966 1.6388 1.8029
1.9570 2.0798 2.2082 2.3540 2.4915 2.6108
2.7318 2.8345 2.9161 3.0142 3.0968 3.1738
3.2591 3.3333 3.3966 3.4718 3.5516 3.5956
3.6185 3.6699 3.6919 3.6799 3.6974 3.6946
3.6928 3.6515 3.6176 3.6057 3.5534 3.5525
3.5039 3.4406 3.4085 3.3480 3.3205 3.2398
3.1380 3.0665 2.9537 2.8262 2.6988 2.5888
2.4604 2.3027 2.1688 2.0129 1.8469 1.7002
1.5507 1.3701 1.2050 1.0437 0.8438 0.6594
0.5026 0.3422 0.1450 -0.0631 -0.2511 -0.3942
-0.5445 -0.7261 -0.8893 -1.0525 -1.2176 -1.3771
-1.5229 -1.6394 -1.7797 -1.9017 -2.0291 -2.1584
-2.2364 -2.3446 -2.4234 -2.5142 -2.5912 -2.6288
-2.6948 -2.7288 -2.7654 -2.7948 -2.8232 -2.8480
-2.8544 -2.8608 -2.8883 -2.8892 -2.8553 -2.8489
-2.8205 -2.7939 -2.7599 -2.7077 -2.6609 -2.5931
-2.5316 -2.4683 -2.3941 -2.3051 -2.2336 -2.1428
-2.0319 -1.9768 -1.9007 -1.7898 -1.6990 -1.6275
-1.5321 -1.4487 -1.3891 -1.3038 -1.2277 -1.1580
-1.0975 -1.0360 -0.9691 -0.9104 -0.8591 -0.8196
-0.7481 -0.6784 -0.6289 -0.5858 -0.5629 -0.5170
-0.4712 -0.4418 -0.3942 -0.3529 -0.3281 -0.2731
-0.2419 -0.2282 -0.2108 -0.1851 -0.1411 -0.1649
-0.1576 -0.1218 -0.1016 -0.0760 -0.0677 -0.0576
-0.0530 -0.0384 -0.0338 -0.0264 -0.0145 0.0011
0.0249 0.0121 0.0102 -0.0035 -0.0283 -0.0228
-0.0585 -0.0604 -0.0613 -0.0888 -0.0714 -0.0769
-0.0796 -0.0714 -0.0558 -0.0494 -0.0255 0.0020
0.0286 0.0900 0.0818 0.1276 0.1790 0.1744
0.2138 0.2486 0.3073 0.3394 0.3724 0.4220
0.4577 0.4926 0.5476 0.6099 0.6173 0.6393
0.6723 0.6815 0.7291 0.7622 0.7933 0.8337
0.8263 0.8713 0.9043 0.9043 0.9511 0.9455
0.9373 0.9676 0.9712 0.9501 0.9327 0.9501
0.9153 0.8749 0.8749 0.8181 0.7832 0.7264
0.6659 0.6191 0.5283 0.4687 0.3798 0.2853
0.1790 0.0377 -0.0585 -0.1869 -0.3336 -0.4721
-0.6518 -0.8123 -1.0003 -1.2185 -1.4230 -1.6412
-1.8485 -2.1025 -2.3418 -2.5490 -2.8177 -3.0644
-3.2982 -3.5027 -3.7136 -3.9529 -4.1326 -4.3463
-4.5434 -4.7323 -4.9130 -5.0689 -5.2468 -5.3806
-5.5191 -5.6374 -5.7520 -5.8685 -5.9611 -6.0784
-6.1756 -6.2444 -6.3361 -6.4315 -6.4838 -6.5296
-6.5892 -6.6506 -6.6892 -6.7057 -6.7047 -6.6928
-6.6827 -6.6598 -6.6305 -6.5727 -6.5048 -6.4003
-6.2884 -6.2059 -6.0601 -5.9143 -5.7676 -5.5833
-5.3889 -5.1872 -4.9726 -4.7268 -4.5022 -4.2372
-3.9740 -3.7227 -3.4256 -3.1267 -2.8315 -2.5371
-2.2097 -1.9145 -1.6146 -1.2680 -0.9489 -0.6362
-0.3171 0.0093 0.3358 0.6576 0.9795 1.2830
1.5718 1.8680 2.1596 2.4430 2.7392 3.0353
3.2958 3.5690 3.8478 4.1229 4.4154 4.6776
4.9390 5.2122 5.4616 5.6936 5.9486 6.1732
6.3630 6.6207 6.8509 7.0517 7.2708 7.4570
7.6706 7.8779 8.0466 8.2254 8.4033 8.5702
8.7013 8.8471 8.9984 9.0984 9.1836 9.2662
9.3468 9.4000 9.4431 9.4642 9.4706 9.4816
9.4358 9.3799 9.3120 9.2258 9.1194 8.9810
8.8343 8.6591 8.5051 8.3437 8.1273 7.9384
7.7587 7.5367 7.3543 7.1700 6.9481 6.7665
6.5950 6.4061 6.2365 6.0696 5.8890 5.7101
5.5378 5.4030 5.2627 5.1205 4.9876 4.8684
4.7666 4.6107 4.4906 4.3925 4.2641 4.1531
4.0513 3.9752 3.8881 3.7726 3.7029 3.6589
3.5837 3.5223 3.4507 3.3792 3.3517 3.2921
3.2380 3.2050 3.1527 3.1371 3.1023 3.0739
3.0949 3.0986 3.1105 3.1335 3.1637 3.2105
3.2728 3.3104 3.3774 3.4443 3.5076 3.6084
3.6699 3.7542 3.8496 3.9505 4.0248 4.1128
4.2118 4.2678 4.3686 4.4401 4.5190 4.5823
4.6162 4.6951 4.7391 4.7868 4.8317 4.8372
4.8564 4.8675 4.8583 4.8317 4.7831 4.7372
4.6905 4.6226 4.5493 4.4823 4.4273 4.3402
4.2109 4.1146 4.0092 3.8634 3.7112 3.5672
3.4196 3.2563 3.1050 2.9491 2.7969 2.6328
2.4677 2.3366 2.1835 2.0230 1.8855 1.7296
1.5847 1.4352 1.2674 1.1005 0.9226 0.7558
0.5980 0.4504 0.2954 0.1084 -0.0759 -0.2603
-0.4308 -0.5940 -0.7857 -0.9902 -1.1901 -1.3744
-1.5779 -1.7925 -1.9603 -2.1620 -2.3702 -2.5756
-2.8012 -2.9882 -3.1973 -3.4036 -3.5944 -3.7998
-3.9923 -4.1620 -4.3481 -4.5453 -4.6828 -4.8552
-5.0276 -5.1688 -5.3109 -5.4274 -5.5548 -5.6346
-5.7144 -5.7969 -5.8373 -5.8813 -5.9115 -5.9042
-5.8978 -5.8758 -5.8043 -5.7731 -5.6961 -5.5787
-5.5026 -5.3788 -5.2477 -5.1220 -4.9606 -4.8020
-4.6635 -4.4967 -4.3197 -4.1785 -4.0299 -3.8841
-3.7347 -3.5742 -3.4559 -3.3477 -3.2147 -3.1120
-3.0313 -2.9387 -2.8562 -2.7893 -2.7471 -2.6856
-2.6022 -2.5518 -2.5242 -2.4802 -2.3977 -2.3427
-2.3198 -2.2602 -2.1987 -2.1593 -2.1419 -2.0777
-2.0162 -1.9897 -1.9172 -1.9007 -1.8879 -1.8622
-1.8475 -1.7907 -1.7833 -1.7696 -1.7476 -1.7531
-1.7384 -1.7228 -1.7173 -1.6907 -1.6751 -1.6916
-1.6889 -1.6788 -1.6485 -1.6504 -1.6430 -1.6045
-1.6091 -1.6036 -1.6045 -1.6045 -1.6366 -1.6568
-1.6705 -1.7384 -1.7696 -1.8182 -1.9007 -1.9603
-2.0144 -2.0768 -2.1373 -2.1969 -2.2409 -2.2831
-2.3335 -2.3674 -2.3959 -2.4289 -2.4637 -2.4821
-2.4857 -2.5132 -2.5463 -2.5362 -2.5472 -2.5435
-2.5261 -2.5142 -2.4793 -2.4766 -2.4142 -2.3363
-2.2895 -2.1987 -2.1208 -2.0346 -1.9631 -1.8805
-1.7769 -1.7219 -1.6174 -1.4954 -1.3789 -1.2533
-1.1525 -1.0195 -0.8728 -0.7325 -0.5949 -0.4638
-0.3217 -0.1640 -0.0136 0.1405 0.2652 0.3926
0.5705 0.7246 0.9034 1.0666 1.1977 1.3839
1.5700 1.7223 1.8800 2.0533 2.2009 2.3320
2.4898 2.6557 2.7859 2.9161 3.0427 3.1390
3.2554 3.3682 3.4718 3.5544 3.6149 3.6928
3.7763 3.8148 3.8322 3.8698 3.8652 3.8716
3.8781 3.8570 3.8249 3.7662 3.7157 3.6433
3.5800 3.5048 3.3921 3.2793 3.1940 3.1005
2.9464 2.8309 2.6906 2.5347 2.4109 2.2532
2.1111 1.9249 1.7828 1.6214 1.4297 1.3087
1.1235 0.9868 0.8236 0.6411 0.5348 0.3606
0.2065 0.0946 -0.0521 -0.1970 -0.3299 -0.4666
-0.5793 -0.7086 -0.8609 -0.9626 -1.0782 -1.1845
-1.2927 -1.4211 -1.5202 -1.6595 -1.7870 -1.8695
-1.9768 -2.1116 -2.2226 -2.3170 -2.4564 -2.5646
-2.6691 -2.7957 -2.8654 -2.9415 -3.0542 -3.1689
-3.2606 -3.3468 -3.4394 -3.5109 -3.6182 -3.7154
-3.7777 -3.8493 -3.9144 -3.9905 -4.0427 -4.1088
-4.1950 -4.2298 -4.2720 -4.2830 -4.2912 -4.3197
-4.3114 -4.3123 -4.3197 -4.3261 -4.3243 -4.3077
-4.2720 -4.2509 -4.2307 -4.1940 -4.1564 -4.0895
-4.0226 -3.9593 -3.8896 -3.8107 -3.7328 -3.6594
-3.5898 -3.5191 -3.4210 -3.3275 -3.2413 -3.1551
-3.0808 -2.9745 -2.8809 -2.8076 -2.7251 -2.6379
-2.5417 -2.4307 -2.3161 -2.2372 -2.1492 -2.0648
-1.9621 -1.8622 -1.7980 -1.7026 -1.6568 -1.5743
-1.4853 -1.4605 -1.4193 -1.4037 -1.3340 -1.2845
-1.2781 -1.2524 -1.2478 -1.2185 -1.2047 -1.1781
-1.1497 -1.1653 -1.1616 -1.1598 -1.1552 -1.1634
-1.2047 -1.2359 -1.2524 -1.2726 -1.2781 -1.2836
-1.3285 -1.3368 -1.3157 -1.3212 -1.3193 -1.3166
-1.2982 -1.2643 -1.2432 -1.2240 -1.2029 -1.1717
-1.1304 -1.0828 -1.0342 -1.0021 -0.9755 -0.9388
-0.9122 -0.8700 -0.8388 -0.8187 -0.7526 -0.7187
-0.6866 -0.6444 -0.6123 -0.5738 -0.5610 -0.5271
-0.5051 -0.4720 -0.4345 -0.4244 -0.3868 -0.3638
-0.3519 -0.3180 -0.2776 -0.2410 -0.2135 -0.1997
-0.1612 -0.1208 -0.0869 -0.0337 0.0075 0.0470
0.0726 0.1166 0.1524 0.1882 0.2597 0.3120
0.3624 0.3872 0.4385 0.5064 0.5788 0.6531
0.7063 0.7815 0.8301 0.9016 0.9612 1.0070
1.0584 1.0813 1.1565 1.2170 1.2363 1.2592
1.2959 1.3206 1.3454 1.3986 1.4022 1.4114
1.4765 1.5104 1.5380 1.5921 1.6177 1.6416
1.6746 1.7030 1.7397 1.7617 1.7892 1.8341
1.8626 1.8947 1.9488 1.9799 2.0267 2.0744
2.0964 2.1670 2.2037 2.2101 2.2394 2.2679
2.2908 2.2825 2.2798 2.2605 2.2688 2.2660
2.2083 2.1982 2.1523 2.0634 1.9992 1.9185
1.8277 1.7507 1.6443 1.5141 1.3720 1.2390
1.1116 0.9337 0.7668 0.5816 0.4073 0.2404
0.0286 -0.1667 -0.3648 -0.5445 -0.7545 -0.9672
-1.1524 -1.3569 -1.5247 -1.6989 -1.8741 -2.0501
-2.2180 -2.3472 -2.5031 -2.6462 -2.8039 -2.9405
-3.0423 -3.1762 -3.2890 -3.3999 -3.4971 -3.5742
-3.6356 -3.7190 -3.8006 -3.8538 -3.9336 -3.9730
-3.9877 -4.0024 -4.0207 -4.0546 -4.0647 -4.0675
-4.0684 -4.0556 -4.0336 -4.0024 -3.9556 -3.9015
-3.8080 -3.7117 -3.6154 -3.5081 -3.4164 -3.2771
-3.1404 -3.0139 -2.8745 -2.7360 -2.5508 -2.3683
-2.2088 -2.0089 -1.8246 -1.6797 -1.4789 -1.2671
-1.0497 -0.8544 -0.6674 -0.4482 -0.2877 -0.1098
0.0992 0.2799 0.4275 0.5660 0.7274 0.8787
1.0208 1.1400 1.2638 1.3931 1.4793 1.6040
1.7259 1.8103 1.9258 2.0441 2.1505 2.2257
2.3321 2.4329 2.4696 2.5476 2.6392 2.7144
2.7951 2.8483 2.9143 2.9895 3.0409 3.1216
3.1766 3.2490 3.3416 3.3710 3.4205 3.5076
3.5709 3.5956 3.6259 3.6488 3.6727 3.7167
3.7350 3.7580 3.7818 3.7754 3.7855 3.8066
3.7992 3.7974 3.7781 3.7222 3.6525 3.5810
3.5315 3.4517 3.3591 3.2536 3.1683 3.1161
3.0051 2.9098 2.8245 2.7190 2.6163 2.5265
2.4458 2.3238 2.2110 2.1019 2.0249 1.9589
1.8516 1.8021 1.7736 1.7104 1.6590 1.6379
1.6113 1.5774 1.5756 1.5682 1.5389 1.5270
1.5187 1.4912 1.4573 1.4490 1.4628 1.4188
1.3913 1.4032 1.3628 1.3656 1.3738 1.3133
1.2803 1.2216 1.1528 1.1299 1.0639 1.0208
0.9869 0.9346 0.8970 0.8282 0.7916 0.7604
0.6989 0.6403 0.5733 0.5128 0.4605 0.4018
0.3432 0.3010 0.2395 0.1680 0.1258 0.0589
0.0112 -0.0328 -0.0786 -0.0961 -0.1465 -0.1813
-0.2235 -0.2639 -0.3079 -0.3629 -0.3895 -0.4317
-0.4629 -0.4812 -0.5408 -0.6242 -0.6637 -0.7132
-0.7710 -0.8113 -0.8920 -0.9232 -0.9498 -1.0231
-1.0580 -1.0855 -1.1176 -1.1533 -1.1863 -1.2056
-1.2102 -1.2349 -1.2533 -1.2460 -1.2478 -1.2395
-1.2460 -1.2294 -1.2084 -1.1790 -1.1433 -1.1020
-1.0442 -1.0057 -0.9323 -0.8654 -0.8031 -0.7398
-0.6903 -0.6252 -0.5582 -0.4867 -0.4216 -0.3574
-0.2969 -0.2336 -0.1713 -0.0915 -0.0062 0.0442
0.1148 0.1992 0.2671 0.3212 0.3615 0.4073
0.4440 0.4633 0.4862 0.5330 0.5623 0.5779
0.6109 0.6421 0.6687 0.6779 0.7026 0.7237
0.7255 0.7420 0.7659 0.7888 0.7980 0.8264
0.8658 0.8640 0.8668 0.9172 0.9383 0.9291
0.9731 0.9960 1.0089 1.0373 1.0428 1.0621
1.0630 1.0740 1.0712 1.0584 1.0804 1.0676
1.0584 1.0575 1.0391 1.0254 1.0025 0.9575
0.9337 0.9337 0.8860 0.8402 0.8218 0.7741
0.7365 0.7008 0.6650 0.6329 0.5623 0.5220
0.4981 0.4422 0.4339 0.4147 0.3615 0.3312
0.2964 0.2891 0.2698 0.2432 0.2313 0.2285
0.2579 0.2496 0.2496 0.2854 0.3111 0.3331
0.3606 0.4028 0.4596 0.5275 0.5577 0.5880
0.6320 0.6806 0.7228 0.7696 0.8402 0.8906
0.9181 0.9475 0.9795 1.0199 1.0703 1.0942
1.1153 1.1354 1.1446 1.1574 1.1648 1.1703
1.1538 1.1263 1.1180 1.1088 1.0997 1.0758
1.0373 1.0382 1.0236 0.9841 0.9585 0.8952
0.8603 0.8292 0.7521 0.6990 0.6412 0.5917
0.5302 0.4514 0.3909 0.2955 0.2010 0.1249
0.0342 -0.0401 -0.1208 -0.2281 -0.3015 -0.3822
-0.4784 -0.5646 -0.6499 -0.7315 -0.8241 -0.8792
-0.9644 -1.0460 -1.0956 -1.1863 -1.2542 -1.3092
-1.3991 -1.4963 -1.5715 -1.6439 -1.7182 -1.7943
-1.8594 -1.9309 -2.0061 -2.0675 -2.1198 -2.1647
-2.2381 -2.2830 -2.3353 -2.3967 -2.4343 -2.4820
-2.4985 -2.5535 -2.5902 -2.5957 -2.6214 -2.6397
-2.6718 -2.6893 -2.7131 -2.7048 -2.6755 -2.6773
-2.6865 -2.6507 -2.6003 -2.6021 -2.5609 -2.5132
-2.4811 -2.4123 -2.3683 -2.3133 -2.2317 -2.1712
-2.1125 -2.0171 -1.9291 -1.8548 -1.7576 -1.6558
-1.5623 -1.5045 -1.3991 -1.2835 -1.1928 -1.0772
-0.9919 -0.8883 -0.7774 -0.6912 -0.5885 -0.4656
-0.3803 -0.3005 -0.1896 -0.1190 -0.0447 0.0121
0.0763 0.1359 0.1662 0.2341 0.2698 0.2992
0.3395 0.3753 0.3854 0.3982 0.4239 0.4101
0.4064 0.4019 0.3863 0.3230 0.2524 0.1836
0.0938 0.0222 -0.0759 -0.1960 -0.3180 -0.4234
-0.5316 -0.6527 -0.7801 -0.9241 -1.0506 -1.1817
-1.3239 -1.4715 -1.6146 -1.7218 -1.8300 -1.9813
-2.1216 -2.2198 -2.3289 -2.4316 -2.5334 -2.6177
-2.6370 -2.7323 -2.8323 -2.8800 -2.9552 -3.0139
-3.0927 -3.1422 -3.1642 -3.1771 -3.1807 -3.1991
-3.2073 -3.1872 -3.1615 -3.1532 -3.1294 -3.1120
-3.0936 -3.0212 -2.9753 -2.9157 -2.8506 -2.7892
-2.6553 -2.5655 -2.4517 -2.3298 -2.2207 -2.0804
-1.9786 -1.8310 -1.6732 -1.5595 -1.3871 -1.2258
-1.1029 -0.9369 -0.7829 -0.6224 -0.4472 -0.2950
-0.1483 0.0030 0.1644 0.3386 0.5064 0.6641
0.8255 0.9823 1.1584 1.3289 1.4784 1.6462
1.7975 1.9451 2.1074 2.2211 2.3413 2.4944
2.6191 2.7346 2.8447 2.9455 3.0272 3.1271
3.2252 3.2720 3.3398 3.4086 3.4774 3.5214
3.5581 3.6021 3.6012 3.6406 3.6626 3.6525
3.6498 3.6379 3.6305 3.5911 3.5196 3.4710
3.4581 3.4068 3.3252 3.2546 3.1858 3.1106
3.0198 2.9171 2.7988 2.7026 2.5843 2.4476
2.3385 2.2092 2.0561 1.8846 1.7260 1.5463
1.3674 1.1877 0.9878 0.7953 0.5761 0.3854
0.1845 -0.0667 -0.3014 -0.5160 -0.7590 -1.0167
-1.2542 -1.4816 -1.7007 -1.9657 -2.2262 -2.4508
-2.7241 -2.9744 -3.2303 -3.4962 -3.6887 -3.9345
-4.2004 -4.3893 -4.6195 -4.8689 -5.0679 -5.2879
-5.5007 -5.6877 -5.8830 -6.0564 -6.2132 -6.3553
-6.4947 -6.6588 -6.7826 -6.8450 -6.9495 -7.0568
-7.1081 -7.1384 -7.1787 -7.2191 -7.1842 -7.1512
-7.1402 -7.0962 -7.0439 -6.9568 -6.8954 -6.8202
-6.6762 -6.5653 -6.4397 -6.2361 -6.0564 -5.8665
-5.6107 -5.3879 -5.1706 -4.9404 -4.7185 -4.4792
-4.2499 -4.0161 -3.7722 -3.5494 -3.3669 -3.1459
-2.9139 -2.7186 -2.4930 -2.2977 -2.1271 -1.9126
-1.7072 -1.5293 -1.3440 -1.1744 -1.0314 -0.8700
-0.6994 -0.5637 -0.4472 -0.3601 -0.2822 -0.1501
-0.0658 -0.0025 0.0874 0.1240 0.1717 0.2313
0.2607 0.2763 0.3056 0.3129 0.3148 0.3038
0.2763 0.2497 0.2029 0.2047 0.1552 0.0855
0.0837 0.0158 -0.0465 -0.0850 -0.1446 -0.1703
-0.2538 -0.3262 -0.3510 -0.4225 -0.4738 -0.4949
-0.5279 -0.5930 -0.6352 -0.6380 -0.6554 -0.7012
-0.7407 -0.7746 -0.7984 -0.8195 -0.8580 -0.8388
-0.8452 -0.8773 -0.8470 -0.8324 -0.8342 -0.7856
-0.7315 -0.7196 -0.7012 -0.6746 -0.6380 -0.5884
-0.5408 -0.4995 -0.4408 -0.3748 -0.3106 -0.2262
-0.1556 -0.0768 0.0140 0.1121 0.2341 0.3423
0.4441 0.5660 0.6678 0.7733 0.9136 1.0355
1.1621 1.2996 1.4179 1.5353 1.6664 1.8333
1.9919 2.0946 2.2175 2.3569 2.4797 2.6292
2.7640 2.8896 3.0244 3.1546 3.3013 3.4261
3.5462 3.6846 3.7855 3.8919 4.0166 4.0982
4.2119 4.3091 4.3595 4.4274 4.4797 4.5769
4.6520 4.6878 4.7612 4.8107 4.8740 4.9051
4.9226 4.9977 5.0152 5.0188 5.0225 5.0225
5.0308 4.9812 4.9592 4.9354 4.8923 4.8776
4.8455 4.8024 4.7382 4.6777 4.6117 4.5457
4.5007 4.4109 4.3155 4.2036 4.1000 4.0285
3.9047 3.8029 3.6810 3.5563 3.4701 3.3435
3.2207 3.0813 2.9694 2.8465 2.7145 2.6310
2.4898 2.3679 2.2569 2.1441 2.0515 1.9635
1.8635 1.7425 1.7022 1.6224 1.5316 1.4702
1.3794 1.3445 1.2877 1.2024 1.1492 1.0942
1.0392 0.9943 0.9658 0.9365 0.9007 0.8668
0.8154 0.7769 0.7549 0.7155 0.7100 0.7045
0.6669 0.6751 0.6926 0.6861 0.7017 0.7384
0.7623 0.7769 0.8154 0.8457 0.8640 0.9181
0.9530 0.9521 0.9722 0.9814 1.0053 1.0383
1.0575 1.0768 1.0823 1.0832 1.0979 1.1061
1.0713 1.0584 1.0392 1.0273 1.0043 0.9539
0.9402 0.8989 0.8631 0.8365 0.8017 0.7393
0.7072 0.6715 0.6000 0.5743 0.5018 0.4487
0.3780 0.2946 0.2726 0.2121 0.1488 0.0626
-0.0016 -0.0538 -0.1235 -0.1611 -0.2437 -0.3216
-0.3940 -0.4876 -0.5499 -0.6114 -0.6911 -0.7792
-0.8498 -0.9240 -1.0029 -1.0717 -1.1441 -1.2230
-1.3193 -1.3926 -1.4788 -1.5925 -1.6695 -1.7438
-1.8273 -1.9034 -1.9887 -2.0721 -2.1372 -2.2014
-2.2582 -2.3399 -2.4059 -2.4123 -2.4646 -2.5342
-2.5618 -2.5902 -2.6397 -2.6663 -2.6654 -2.6846
-2.6993 -2.7066 -2.7085 -2.7186 -2.7341 -2.7030
-2.6993 -2.6901 -2.6434 -2.6296 -2.5801 -2.5242
-2.4646 -2.3857 -2.3096 -2.2206 -2.1308 -2.0116
-1.9180 -1.8218 -1.6714 -1.5613 -1.4412 -1.3092
-1.1918 -1.0396 -0.8865 -0.7287 -0.6004 -0.4601
-0.2877 -0.1556 -0.0062 0.1479 0.2772 0.4221
0.5715 0.6926 0.8182 0.9594 1.0915 1.2152
1.3271 1.4408 1.5536 1.6618 1.7425 1.8232
1.9250 1.9892 2.0589 2.1368 2.1992 2.2533
2.3028 2.3495 2.3862 2.4119 2.3954 2.3972
2.3844 2.3367 2.3440 2.3220 2.2413 2.1405
2.0534 1.9818 1.8892 1.7865 1.6884 1.5591
1.4032 1.2620 1.1153 0.9897 0.8494 0.6733
0.4789 0.3001 0.1580 0.0012 -0.1611 -0.3408
-0.5114 -0.6911 -0.8498 -0.9873 -1.1441 -1.2697
-1.4165 -1.5806 -1.7310 -1.8804 -2.0235 -2.1620
-2.2931 -2.4233 -2.5352 -2.6755 -2.8038 -2.8763
-2.9570 -3.0303 -3.1248 -3.2211 -3.2733 -3.2880
-3.3302 -3.4145 -3.4356 -3.4641 -3.5163 -3.5200
-3.5081 -3.4916 -3.4668 -3.4457 -3.3907 -3.3421
-3.3137 -3.2156 -3.1367 -3.0826 -3.0037 -2.9148
-2.8011 -2.6993 -2.5636 -2.4499 -2.3655 -2.2371
-2.1244 -1.9795 -1.8098 -1.6695 -1.5292 -1.3642
-1.2000 -1.0542 -0.8956 -0.7553 -0.6077 -0.4619
-0.3436 -0.2207 -0.1033 0.0067 0.1076 0.1965
0.2469 0.3230 0.4248 0.4753 0.5303 0.5853
0.6366 0.6834 0.7320 0.7412 0.7421 0.7751
0.7265 0.7045 0.6880 0.6577 0.6339 0.5743
0.5550 0.5129 0.4633 0.4221 0.3872 0.3276
0.2433 0.1993 0.1231 0.0406 -0.0392 -0.1290
-0.2042 -0.2987 -0.4087 -0.4894 -0.5407 -0.6269
-0.7361 -0.8287 -0.9167 -1.0001 -1.1019 -1.1991
-1.2798 -1.3853 -1.4540 -1.5641 -1.6769 -1.7438
-1.8850 -1.9813 -2.0501 -2.1500 -2.2271 -2.3096
-2.3921 -2.4682 -2.5452 -2.6269 -2.7039 -2.7616
-2.8148 -2.8726 -2.9074 -2.9432 -2.9826 -3.0257
-3.0441 -3.0184 -3.0037 -2.9872 -2.9579 -2.9010
-2.8240 -2.7461 -2.6397 -2.5544 -2.4774 -2.3738
-2.2573 -2.1583 -2.0748 -1.9501 -1.8529 -1.7411
-1.5861 -1.4650 -1.3092 -1.1560 -1.0368 -0.8883
-0.7388 -0.5921 -0.4527 -0.2996 -0.1391 -0.0025
0.1167 0.2341 0.3634 0.4927 0.6220 0.7403
0.8595 0.9924 1.1098 1.2611 1.4298 1.5619
1.6811 1.8113 1.9342 2.0378 2.1671 2.2927
2.4092 2.5302 2.6870 2.8346 2.9648 3.1061
3.2170 3.3179 3.4435 3.6113 3.7076 3.8158
3.9442 4.0405 4.1936 4.3073 4.4054 4.5026
4.5998 4.6860 4.7649 4.8575 4.9217 5.0317
5.1060 5.1372 5.2105 5.2784 5.3242 5.3279
5.3627 5.4031 5.3948 5.4022 5.4077 5.4168
5.4058 5.3655 5.3636 5.3563 5.3233 5.2903
5.2362 5.2068 5.1628 5.0693 4.9932 4.9015
4.8080 4.7319 4.6484 4.5466 4.4072 4.2743
4.1459 4.0285 3.9002 3.7443 3.6031 3.4756
3.3573 3.2207 3.0987 3.0079 2.8768 2.7136
2.6136 2.5082 2.3752 2.2817 2.1579 2.0305
1.9057 1.7810 1.6783 1.5949 1.5096 1.3867
1.2868 1.2171 1.1437 1.0502 0.9787 0.9273
0.8228 0.6999 0.6101 0.5092 0.4010 0.3157
0.1983 0.0645 -0.0456 -0.1483 -0.2675 -0.3711
-0.4683 -0.6086 -0.7608 -0.8782 -0.9873 -1.1340
-1.2688 -1.4146 -1.5833 -1.7337 -1.8823 -2.0345
-2.1885 -2.3554 -2.5397 -2.6901 -2.8286 -2.9955
-3.1697 -3.3155 -3.4659 -3.6263 -3.7556 -3.8968
-4.0271 -4.1518 -4.2911 -4.4140 -4.5195 -4.6497
-4.7735 -4.8413 -4.9183 -4.9807 -5.0266 -5.0715
-5.0816 -5.0962 -5.1155 -5.1118 -5.0843 -5.0449
-4.9899 -4.9138 -4.8156 -4.6937 -4.6002 -4.4800
-4.3113 -4.1609 -4.0206 -3.8244 -3.6135 -3.4402
-3.2293 -3.0138 -2.8203 -2.5819 -2.3508 -2.1573
-1.9153 -1.6686 -1.4522 -1.2000 -0.9433 -0.7131
-0.4820 -0.2409 0.0003 0.2314 0.4368 0.6587
0.8852 1.0933 1.3097 1.5023 1.6848 1.8617
2.0360 2.1946 2.3221 2.4486 2.5715 2.6833
2.7705 2.8401 2.9236 2.9713 3.0006 3.0602
3.0611 3.0621 3.0987 3.0969 3.1088 3.0731
3.0125 2.9777 2.9108 2.8667 2.8383 2.7723
2.6934 2.6292 2.5669 2.4596 2.3569 2.2588
2.0864 1.9424 1.8397 1.7279 1.6077 1.4629
1.3354 1.2006 1.0860 0.9824 0.8393 0.7201
0.5963 0.4789 0.3827 0.2708 0.1745 0.0727
-0.0070 -0.0923 -0.2005 -0.2684 -0.3417 -0.3958
-0.4499 -0.5114 -0.5242 -0.5435 -0.5517 -0.5664
-0.5563 -0.5050 -0.4775 -0.4334 -0.4004 -0.3546
-0.2941 -0.2005 -0.1024 -0.0373 0.0416 0.1507
0.2800 0.3652 0.5019 0.6367 0.7678 0.8998
0.9833 1.1548 1.2841 1.3767 1.5142 1.6508
1.7921 1.9342 2.0782 2.1570 2.2918 2.4275
2.4807 2.6228 2.7640 2.8640 2.9667 3.0410
3.1336 3.2189 3.2592 3.3014 3.3628 3.3738
3.3995 3.4353 3.3821 3.3922 3.3738 3.3041
3.2647 3.1739 3.1272 3.0456 2.9465 2.8750
2.7576 2.6439 2.5027 2.3523 2.1964 2.0222
1.8498 1.6793 1.4968 1.3143 1.1667 1.0090
0.8412 0.6532 0.4698 0.2928 0.1085 -0.0630
-0.2262 -0.4151 -0.6260 -0.8039 -1.0111 -1.2156
-1.3834 -1.5696 -1.7750 -1.9822 -2.1518 -2.3306
-2.5232 -2.7240 -2.9258 -3.0936 -3.2971 -3.5099
-3.7006 -3.8858 -4.0637 -4.2013 -4.3351 -4.5085
-4.6295 -4.7588 -4.8716 -4.9660 -5.0907 -5.1723
-5.2750 -5.3493 -5.3933 -5.4768 -5.5318 -5.5813
-5.6171 -5.6088 -5.6070 -5.6217 -5.6024 -5.5584
-5.4960 -5.4254 -5.3612 -5.2503 -5.1228 -5.0220
-4.8826 -4.6854 -4.5057 -4.3370 -4.1664 -3.9794
-3.7685 -3.5860 -3.3943 -3.1880 -3.0147 -2.8359
-2.6378 -2.4792 -2.3361 -2.1711 -1.9849 -1.8190
-1.6768 -1.5265 -1.3642 -1.2211 -1.1028 -0.9717
-0.8626 -0.7324 -0.6232 -0.5370 -0.4453 -0.3903
-0.3005 -0.2390 -0.1996 -0.1327 -0.0767 -0.0455
-0.0080 0.0388 0.0425 0.0929 0.1342 0.1333
0.1470 0.1443 0.1498 0.1287 0.1323 0.0984
0.0526 0.0691 0.0214 -0.0052 -0.0235 -0.0465
-0.0731 -0.1107 -0.1162 -0.1721 -0.2207 -0.2482
-0.2775 -0.3252 -0.3903 -0.4408 -0.4719 -0.5068
-0.5370 -0.5178 -0.5178 -0.5435 -0.5407 -0.5315
-0.5352 -0.5260 -0.5104 -0.5306 -0.5535 -0.5737
-0.5948 -0.5985 -0.6232 -0.6315 -0.6058 -0.6242
-0.6260 -0.5893 -0.5636 -0.5563 -0.5435 -0.4985
-0.4683 -0.4316 -0.4114 -0.4096 -0.3903 -0.3546
-0.3142 -0.2959 -0.2308 -0.1629 -0.1070 -0.0364
0.0324 0.0938 0.1305 0.1910 0.2506 0.3084
0.3524 0.3992 0.4560 0.4808 0.5221 0.5514
0.5844 0.6073 0.6293 0.6779 0.7137 0.7357
0.7091 0.7027 0.6862 0.6422 0.5945 0.5285
0.5111 0.4505 0.3809 0.3368 0.2497 0.1791
0.0984 0.0040 -0.0703 -0.1904 -0.2940 -0.3756
-0.5169 -0.6269 -0.7149 -0.8167 -0.9020 -1.0111
-1.0900 -1.1450 -1.2248 -1.3100 -1.3953 -1.4751
-1.5485 -1.6163 -1.6924 -1.7694 -1.8410 -1.9024
-1.9666 -2.0299 -2.0620 -2.1151 -2.1738 -2.2059
-2.2545 -2.3004 -2.3215 -2.3306 -2.3646 -2.4104
-2.4104 -2.4196 -2.4581 -2.4700 -2.4498 -2.4471
-2.4526 -2.4370 -2.4278 -2.4040 -2.3526 -2.3260
-2.2958 -2.2316 -2.1729 -2.1234 -2.0693 -2.0216
-1.9611 -1.8859 -1.8281 -1.7520 -1.6897 -1.6383
-1.5695 -1.5173 -1.4678 -1.4237 -1.3586 -1.2734
-1.2055 -1.1532 -1.0918 -1.0249 -0.9708 -0.9066
-0.8277 -0.7626 -0.7241 -0.6700 -0.6507 -0.5921
-0.4884 -0.4710 -0.4178 -0.3729 -0.3371 -0.2647
-0.2408 -0.2179 -0.1822 -0.1556 -0.1611 -0.1492
-0.1519 -0.1537 -0.1336 -0.1831 -0.2042 -0.2060
-0.2408 -0.2656 -0.3060 -0.3316 -0.3435 -0.3738
-0.3729 -0.3793 -0.4151 -0.4270 -0.4664 -0.5013
-0.5004 -0.5114 -0.5242 -0.5389 -0.5398 -0.5434
-0.5801 -0.5966 -0.6067 -0.6535 -0.6847 -0.7039
-0.7158 -0.7296 -0.7241 -0.7241 -0.7571 -0.7406
-0.7479 -0.7608 -0.7268 -0.7094 -0.7314 -0.7360
-0.6902 -0.6883 -0.6874 -0.6251 -0.6104 -0.6177
-0.5572 -0.4875 -0.4178 -0.3362 -0.2693 -0.1968
-0.1015 -0.0171 0.0764 0.1855 0.2644 0.3671
0.4487 0.5340 0.6330 0.7174 0.8522 0.9567
1.0466 1.1309 1.2446 1.3675 1.4280 1.5197
1.5876 1.6628 1.7637 1.8077 1.8929 1.9819
2.0149 2.0488 2.1066 2.1424 2.1414 2.1314
2.1323 2.1506 2.1314 2.1350 2.1525 2.1460
2.1680 2.1424 2.1295 2.1130 2.0305 2.0213
1.9938 1.9085 1.8306 1.7655 1.7132 1.6169
1.5335 1.4427 1.3529 1.2777 1.1722 1.1044
1.0411 0.9476 0.8604 0.7669 0.6807 0.6110
0.5212 0.4423 0.3809 0.3158 0.2424 0.1397
0.0663 0.0003 -0.0758 -0.1583 -0.2436 -0.3142
-0.4068 -0.4985 -0.6232 -0.7369 -0.8195 -0.9111
-1.0203 -1.1716 -1.2963 -1.4210 -1.5585 -1.6915
-1.8300 -1.9638 -2.1069 -2.2325 -2.3746 -2.5168
-2.6415 -2.7900 -2.8973 -3.0073 -3.1449 -3.2815
-3.4172 -3.5126 -3.6327 -3.7253 -3.7932 -3.8693
-3.8968 -3.9582 -4.0032 -4.0325 -4.0674 -4.0747
-4.0894 -4.0949 -4.1105 -4.1215 -4.0921 -4.0738
-4.0765 -4.0646 -4.0509 -4.0151 -3.9821 -3.9537
-3.9023 -3.8610 -3.8051 -3.7730 -3.7455 -3.6575
-3.6190 -3.5777 -3.5098 -3.4557 -3.3622 -3.2742
-3.1550 -3.0183 -2.8762 -2.7093 -2.5663 -2.4269
-2.2894 -2.1747 -2.0619 -1.9418 -1.8336 -1.7318
-1.6337 -1.5301 -1.4311 -1.3018 -1.1807 -1.1065
-0.9790 -0.8433 -0.7782 -0.6764 -0.5691 -0.5278
-0.4462 -0.3921 -0.3481 -0.2876 -0.2729 -0.2069
-0.1757 -0.1482 -0.0730 -0.0253 0.0471 0.1131
0.1892 0.2763 0.3323 0.3919 0.4772 0.5423
0.5734 0.6349 0.7110 0.7715 0.8348 0.9164
0.9778 1.0301 1.1383 1.2364 1.3244 1.4345
1.5069 1.5977 1.7187 1.8022 1.8911 2.0012
2.0993 2.2066 2.2983 2.4074 2.5468 2.6440
2.7797 2.9154 3.0181 3.1529 3.2813 3.4087
3.5187 3.6370 3.7562 3.8755 3.9818 4.0570
4.1744 4.2826 4.3917 4.4962 4.5742 4.6705
4.7374 4.8007 4.8557 4.8997 4.9336 4.9602
4.9795 4.9630 4.9841 4.9767 4.9511 4.9236
4.8750 4.8704 4.8254 4.7842 4.7402 4.6640
4.5898 4.5045 4.4266 4.3101 4.2212 4.1460
4.0396 3.9360 3.8113 3.7187 3.6380 3.5077
3.4060 3.3344 3.2317 3.1245 3.0135 2.9090
2.8191 2.7210 2.6238 2.5321 2.4597 2.4028
2.3395 2.3212 2.3102 2.2973 2.3230 2.3414
2.3643 2.3661 2.3881 2.4248 2.4294 2.4523
2.4835 2.5275 2.5513 2.5825 2.6375 2.6990
2.7879 2.8384 2.8915 2.9502 3.0153 3.0667
3.0612 3.1089 3.1465 3.1721 3.2217 3.2116
3.2492 3.2904 3.2712 3.3134 3.3244 3.2858
3.2813 3.2528 3.2226 3.1859 3.1116 3.0759
3.0438 2.9631 2.8787 2.8209 2.7384 2.6220
2.5587 2.4789 2.3927 2.3129 2.1717 2.0626
1.9599 1.8471 1.7160 1.5638 1.4473 1.2905
1.1200 0.9898 0.8467 0.6881 0.5358 0.3882
0.2360 0.0664 -0.0987 -0.2362 -0.3848 -0.5608
-0.7232 -0.8809 -1.0606 -1.2440 -1.4173 -1.5677
-1.7584 -1.9336 -2.0693 -2.2261 -2.3820 -2.5424
-2.6607 -2.8230 -3.0055 -3.1238 -3.2751 -3.3989
-3.4961 -3.6391 -3.7455 -3.8363 -3.9316 -3.9922
-4.0710 -4.1123 -4.1535 -4.2058 -4.2113 -4.2315
-4.2370 -4.1902 -4.1590 -4.1242 -4.0169 -3.8986
-3.7693 -3.6538 -3.4924 -3.2998 -3.1302 -2.9331
-2.7387 -2.5177 -2.3352 -2.1399 -1.8987 -1.7006
-1.4870 -1.2733 -1.0771 -0.8717 -0.6562 -0.4536
-0.2729 -0.0877 0.1085 0.2929 0.4616 0.6532
0.8045 0.9485 1.1282 1.2603 1.4079 1.5519
1.6747 1.8104 1.9104 2.0250 2.1112 2.2277
2.3579 2.3927 2.5018 2.5844 2.6073 2.6751
2.7311 2.7797 2.7733 2.7907 2.8521 2.8448
2.8292 2.8530 2.8384 2.8209 2.8035 2.7659
2.7293 2.6687 2.6119 2.5284 2.4532 2.3918
2.2790 2.1827 2.1112 2.0076 1.8829 1.7958
1.7022 1.5711 1.4758 1.3556 1.2162 1.0998
0.9622 0.8495 0.7248 0.5835 0.4653 0.3250
0.1984 0.0893 -0.0226 -0.1565 -0.2729 -0.3829
-0.4893 -0.5618 -0.6901 -0.8002 -0.8735 -0.9726
-1.0780 -1.1835 -1.2724 -1.3586 -1.4292 -1.4971
-1.5567 -1.6190 -1.6988 -1.7281 -1.7685 -1.8208
-1.8409 -1.8547 -1.8327 -1.8391 -1.8052 -1.7612
-1.7446 -1.7043 -1.6484 -1.5475 -1.4916 -1.4127
-1.3100 -1.2201 -1.0771 -0.9450 -0.8130 -0.6819
-0.5223 -0.3637 -0.2509 -0.0739 0.0664 0.1636
0.3020 0.4451 0.5817 0.6872 0.8036 0.9036
0.9943 1.0851 1.1374 1.2153 1.2933 1.3520
1.4079 1.4537 1.4858 1.5124 1.5720 1.5895
1.5509 1.5610 1.5454 1.5344 1.5262 1.4556
1.4143 1.3584 1.2777 1.1961 1.1016 1.0109
0.9072 0.7825 0.6670 0.5441 0.3974 0.2479
0.0838 -0.0739 -0.2491 -0.4288 -0.5920 -0.7580
-0.9166 -1.0881 -1.2605 -1.4200 -1.5814 -1.7483
-1.9106 -2.0757 -2.2646 -2.4388 -2.6093 -2.7799
-2.9468 -3.1329 -3.3228 -3.4814 -3.6474 -3.8555
-3.9903 -4.1480 -4.3232 -4.4286 -4.5873 -4.7331
-4.8550 -4.9751 -5.0558 -5.1778 -5.2979 -5.3804
-5.4639 -5.5372 -5.6161 -5.6739 -5.6968 -5.7206
-5.7344 -5.6986 -5.6748 -5.6243 -5.5464 -5.5051
-5.4107 -5.3162 -5.1925 -5.0632 -4.9577 -4.8192
-4.6725 -4.5001 -4.3571 -4.1829 -4.0004 -3.8353
-3.5978 -3.4034 -3.2127 -2.9743 -2.7772 -2.5635
-2.3416 -2.1399 -1.9271 -1.7116 -1.4989 -1.2962
-1.0853 -0.8717 -0.6892 -0.4856 -0.2766 -0.1170
0.0783 0.2782 0.4552 0.6377 0.8137 0.9696
1.1236 1.2786 1.3914 1.5491 1.6839 1.7518
1.8820 2.0113 2.1030 2.1983 2.2772 2.3680
2.4450 2.5037 2.5679 2.5890 2.6165 2.6422
2.6458 2.6458 2.6339 2.6174 2.5578 2.5156
2.4964 2.4349 2.3799 2.3075 2.2167 2.1607
2.0755 1.9847 1.8792 1.7463 1.6913 1.5720
1.4418 1.3832 1.2896 1.2199 1.0971 0.9797
0.9448 0.8825 0.7963 0.7284 0.6826 0.6147
0.5478 0.5056 0.4735 0.4323 0.3736 0.3543
0.3396 0.3158 0.3130 0.2745 0.2599 0.2718
0.2534 0.2755 0.2782 0.2920 0.3305 0.3250
0.3846 0.4185 0.4634 0.5350 0.5689 0.6377
0.6734 0.7605 0.8284 0.8807 0.9724 1.0228
1.1081 1.1741 1.2328 1.3080 1.3575 1.4272
1.5180 1.5831 1.6518 1.7133 1.7683 1.8435
1.8985 1.9425 1.9994 2.0480 2.0635 2.1103
2.1415 2.1516 2.1818 2.1662 2.1828 2.1727
2.1387 2.1525 2.1250 2.1048 2.0746 2.0342
2.0168 1.9645 1.9132 1.8517 1.7811 1.7096
1.6362 1.5757 1.4895 1.4015 1.3080 1.2410
1.1502 1.0210 0.9146 0.8036 0.7046 0.6001
0.4873 0.3800 0.2892 0.1929 0.0737 -0.0336
-0.1216 -0.1922 -0.2995 -0.3958 -0.4856 -0.5911
-0.6314 -0.6828 -0.7497 -0.8249 -0.8854 -0.9129
-0.9845 -0.9973 -1.0184 -1.0752 -1.0817 -1.0954
-1.0927 -1.0872 -1.0807 -1.0734 -1.0679 -1.0771
-1.0450 -0.9918 -0.9817 -0.9331 -0.9056 -0.8827
-0.8322 -0.8011 -0.7506 -0.6965 -0.6406 -0.5810
-0.5278 -0.4609 -0.3893 -0.3490 -0.3087 -0.2546
-0.1803 -0.1124 -0.0904 -0.0171 0.0563 0.0985
0.1746 0.2305 0.2874 0.3314 0.3956 0.4781
0.5221 0.5625 0.6184 0.7019 0.7440 0.7688
0.8311 0.8687 0.8999 0.9751 1.0054 1.0109
1.0659 1.1072 1.1475 1.1851 1.1814 1.1796
1.2007 1.2071 1.2053 1.1814 1.1576 1.1530
1.1145 1.0851 1.0595 1.0329 0.9999 0.9238
0.8770 0.8302 0.7578 0.7037 0.6459 0.5643
0.4754 0.4020 0.3186 0.2241 0.1425 0.0609
-0.0281 -0.1253 -0.2004 -0.2802 -0.3848 -0.4765
-0.5581 -0.6268 -0.7158 -0.8203 -0.9093 -0.9964
-1.0725 -1.1633 -1.2504 -1.3136 -1.4081 -1.4906
-1.5466 -1.6190 -1.6914 -1.7639 -1.8152 -1.8822
-1.9684 -2.0005 -2.0472 -2.1022 -2.1582 -2.2095
-2.2059 -2.2508 -2.2829 -2.2994 -2.3379 -2.3159
-2.3260 -2.3507 -2.3425 -2.3333 -2.3333 -2.3315
-2.3067 -2.2838 -2.2196 -2.1949 -2.1866 -2.1096
-2.0839 -2.0591 -2.0124 -1.9610 -1.8913 -1.8400
-1.7868 -1.7254 -1.6529 -1.5933 -1.5466 -1.4824
-1.4255 -1.3604 -1.3109 -1.2779 -1.2109 -1.1678
-1.1284 -1.0881 -1.0706 -1.0202 -0.9698 -0.9303
-0.9120 -0.8964 -0.8515 -0.8396 -0.8322 -0.7937
-0.7818 -0.7589 -0.7497 -0.7589 -0.7415 -0.7497
-0.7570 -0.7607 -0.7717 -0.7965 -0.8368 -0.8588
-0.8414 -0.8506 -0.9102 -0.9239 -0.9441 -0.9973
-1.0220 -1.0386 -1.0560 -1.0982 -1.1523 -1.1853
-1.2430 -1.2935 -1.3329 -1.3888 -1.4163 -1.4420
-1.4814 -1.5172 -1.5291 -1.5420 -1.5750 -1.5896
-1.6007 -1.6282 -1.6355 -1.6043 -1.6080 -1.6217
-1.5961 -1.5860 -1.5658 -1.5300 -1.5062 -1.4668
-1.4558 -1.4475 -1.3879 -1.3356 -1.3182 -1.3026
-1.2522 -1.2174 -1.1834 -1.1321 -1.0936 -1.0523
-1.0138 -0.9542 -0.9203 -0.8671 -0.7827 -0.7589
-0.7204 -0.6553 -0.6186 -0.5846 -0.5324 -0.5058
-0.4801 -0.4132 -0.3774 -0.3508 -0.3206 -0.2976
-0.2518 -0.2408 -0.2334 -0.2050 -0.1803 -0.1803
-0.1922 -0.1738 -0.2078 -0.2124 -0.1858 -0.2142
-0.2206 -0.2197 -0.2215 -0.2389 -0.2564 -0.2591
-0.2729 -0.2930 -0.3077 -0.3160 -0.3343 -0.3490
-0.3792 -0.3792 -0.3637 -0.4113 -0.4269 -0.4278
-0.4746 -0.4902 -0.5186 -0.5406 -0.5535 -0.6048
-0.6241 -0.6589 -0.7121 -0.7304 -0.7937 -0.8616
-0.9175 -0.9799 -1.0330 -1.1073 -1.1385 -1.2082
-1.2870 -1.3265 -1.4237 -1.4677 -1.5117 -1.5961
-1.6547 -1.7254 -1.7639 -1.7831 -1.8409 -1.8977
-1.9363 -1.9739 -2.0179 -2.0536 -2.0857 -2.1407
-2.1490 -2.1563 -2.1646 -2.1444 -2.1747 -2.1591
-2.1508 -2.1893 -2.1591 -2.1572 -2.1582 -2.1334
-2.1371 -2.1178 -2.1288 -2.1279 -2.1013 -2.1105
-2.0949 -2.0766 -2.0885 -2.0821 -2.0490 -2.0335
-2.0307 -2.0114 -1.9904 -1.9674 -1.9216 -1.8987
-1.8730 -1.8455 -1.8152 -1.7556 -1.7235 -1.7043
-1.6630 -1.5878 -1.5410 -1.5163 -1.4548 -1.3870
-1.3338 -1.3008 -1.2384 -1.1697 -1.1257 -1.0615
-1.0092 -0.9890 -0.9569 -0.9230 -0.8735 -0.8203
-0.8093 -0.7845 -0.7433 -0.7148 -0.6644 -0.6186
-0.5975 -0.5755 -0.5580 -0.5434 -0.5333 -0.5159
-0.4856 -0.5159 -0.5434 -0.5379 -0.5397 -0.5324
-0.5608 -0.5874 -0.6094 -0.6241 -0.6351 -0.6754
-0.6956 -0.7249 -0.7552 -0.7900 -0.8368 -0.8836
-0.9349 -0.9725 -1.0202 -1.0743 -1.1293 -1.1871
-1.2522 -1.3109 -1.3347 -1.4072 -1.4989 -1.5429
-1.5961 -1.6373 -1.6832 -1.7345 -1.8015 -1.8748
-1.9252 -1.9693 -2.0023 -2.0720 -2.1270 -2.1600
-2.1994 -2.2315 -2.2746 -2.2774 -2.2829 -2.2810
-2.2728 -2.2957 -2.2884 -2.2737 -2.2682 -2.2755
-2.2434 -2.2242 -2.2159 -2.1701 -2.1591 -2.1160
-2.0628 -2.0096 -1.9307 -1.8721 -1.8280 -1.7510
-1.6621 -1.5997 -1.5062 -1.4301 -1.3870 -1.2889
-1.1779 -1.0881 -0.9798 -0.8625 -0.7506 -0.6626
-0.5608 -0.4324 -0.3315 -0.2188 -0.1161 -0.0124
0.1169 0.2260 0.3406 0.4543 0.5662 0.6900
0.8211 0.9348 1.0421 1.1631 1.2704 1.3979
1.5418 1.6473 1.7436 1.8618 1.9728 2.0883
2.2149 2.3093 2.4139 2.5212 2.6229 2.7412
2.8274 2.9017 2.9897 3.0869 3.1649 3.2318
3.2731 3.3244 3.3950 3.4198 3.4537 3.4574
3.4693 3.5106 3.4895 3.4601 3.4445 3.4170
3.3538 3.2887 3.2465 3.1685 3.0631 2.9980
2.9145 2.8192 2.7504 2.6349 2.5377 2.4496
2.3405 2.2406 2.1379 2.0397 1.9398 1.8508
1.7463 1.6537 1.5602 1.4483 1.3529 1.2466
1.1393 1.0577 0.9522 0.8413 0.7624 0.6441
0.5570 0.4699 0.3470 0.2966 0.2260 0.1572
0.1013 0.0132 -0.0289 -0.0775 -0.1280 -0.1381
-0.1647 -0.1967 -0.2105 -0.2178 -0.2169 -0.2123
-0.1839 -0.1426 -0.1371 -0.0968 -0.0244 0.0169
0.0857 0.1508 0.2205 0.3048 0.3709 0.4754
0.5689 0.6560 0.7652 0.8486 0.9430 1.0678
1.1659 1.2456 1.3694 1.4501 1.5272 1.6546
1.7179 1.7784 1.8444 1.9077 1.9737 2.0333
2.1094 2.1489 2.2112 2.2947 2.3167 2.3625
2.4322 2.4597 2.4936 2.5377 2.5643 2.5698
2.5844 2.5890 2.5964 2.6202 2.6092 2.6376
2.6339 2.6239 2.6339 2.6028 2.6019 2.5569
2.5450 2.5395 2.5138 2.4955 2.4634 2.4671
2.4322 2.4102 2.3928 2.3735 2.3589 2.3433
2.3589 2.3387 2.3185 2.2892 2.2534 2.2397
2.1956 2.1819 2.1727 2.1314 2.1305 2.1012
2.0508 2.0462 2.0104 1.9801 1.9481 1.9004
1.8930 1.8554 1.8068 1.7702 1.7261 1.6986
1.6537 1.6198 1.6014 1.5574 1.5226 1.4832
1.4611 1.4180 1.3584 1.3346 1.2961 1.2768
1.2557 1.2457 1.2163 1.1888 1.2035 1.1796
1.1952 1.2292 1.2255 1.2108 1.2108 1.2594
1.2988 1.3108 1.3282 1.3694 1.3951 1.4346
1.4868 1.5207 1.5611 1.5859 1.6464 1.6601
1.6757 1.7353 1.7427 1.7628 1.7784 1.8023
1.8188 1.8389 1.8573 1.8729 1.8921 1.9013
1.9361 1.9389 1.9526 1.9875 1.9875 1.9792
1.9811 1.9912 2.0049 2.0022 1.9829 1.9802
1.9581 1.9517 1.9737 1.9774 1.9462 1.9288
1.9279 1.9031 1.8903 1.8426 1.8142 1.7821
1.7252 1.6986 1.6418 1.5813 1.5052 1.4740
1.4153 1.3108 1.2640 1.1943 1.1347 1.0531
0.9852 0.9266 0.8431 0.7798 0.6863 0.6120
0.5277 0.4451 0.3773 0.2773 0.1884 0.0994
0.0059 -0.0757 -0.1601 -0.2407 -0.3004 -0.3875
-0.4718 -0.5525 -0.6442 -0.7121 -0.7753 -0.8386
-0.9001 -0.9532 -1.0238 -1.0798 -1.1110 -1.1430
-1.1916 -1.2430 -1.2302 -1.2439 -1.2934 -1.2852
-1.2705 -1.2549 -1.2375 -1.2182 -1.1761 -1.1293
-1.0697 -1.0183 -0.9431 -0.8845 -0.8304 -0.7414
-0.7047 -0.6405 -0.5534 -0.4801 -0.4241 -0.3838
-0.2967 -0.2472 -0.1876 -0.1252 -0.0720 0.0004
0.0325 0.0839 0.1416 0.2022 0.2572 0.3030
0.3755 0.4314 0.4644 0.5258 0.6056 0.6469
0.6991 0.7789 0.8119 0.8504 0.9027 0.9119
0.9623 1.0045 1.0329 1.0724 1.0724 1.1072
1.1402 1.1576 1.1833 1.2099 1.2154 1.1971
1.2099 1.2163 1.1934 1.1686 1.1751 1.1650
1.1191 1.0953 1.0623 1.0192 0.9724 0.9183
0.8697 0.8156 0.7578 0.7047 0.6588 0.6038
0.5405 0.4727 0.4231 0.3645 0.2838 0.2159
0.1600 0.0985 0.0243 -0.0143 -0.0913 -0.1646
-0.2031 -0.2637 -0.2774 -0.3434 -0.4232 -0.4526
-0.4837 -0.5085 -0.5397 -0.5709 -0.6020 -0.6167
-0.6222 -0.6341 -0.6415 -0.6323 -0.6332 -0.6305
-0.6011 -0.5846 -0.5718 -0.5415 -0.5076 -0.4837
-0.4471 -0.4241 -0.4150 -0.3930 -0.3737 -0.3379
-0.3104 -0.2875 -0.2618 -0.2279 -0.2178 -0.2132
-0.1701 -0.1600 -0.1280 -0.1225 -0.1160 -0.0647
-0.0784 -0.0656 -0.0427 -0.0564 -0.0619 -0.0546
-0.0408 -0.0408 -0.0436 -0.0445 -0.0454 -0.0628
-0.0867 -0.0849 -0.1014 -0.1399 -0.1399 -0.1500
-0.1958 -0.2261 -0.2572 -0.3077 -0.3471 -0.3517
-0.4104 -0.4535 -0.4672 -0.5470 -0.5754 -0.5892
-0.6497 -0.7066 -0.7432 -0.7928 -0.8514 -0.8909
-0.9615 -1.0110 -1.0449 -1.1183 -1.1898 -1.2659
-1.3118 -1.3906 -1.4805 -1.5217 -1.6024 -1.6685
-1.7547 -1.8317 -1.8821 -1.9683 -2.0398 -2.1380
-2.2067 -2.2810 -2.3718 -2.4341 -2.5341 -2.6157
-2.6936 -2.7679 -2.8642 -2.9660 -3.0201 -3.1173
-3.1870 -3.2502 -3.3373 -3.4052 -3.4758 -3.5042
-3.5739 -3.6271 -3.6583 -3.7353 -3.7802 -3.7958
-3.8041 -3.8646 -3.8820 -3.8793 -3.8995 -3.8765
-3.8756 -3.8444 -3.8105 -3.7683 -3.7115 -3.6546
-3.5418 -3.4905 -3.3924 -3.2383 -3.1439 -3.0375
-2.9027 -2.7523 -2.6212 -2.4745 -2.3314 -2.1829
-2.0050 -1.8729 -1.7290 -1.5703 -1.4511 -1.3145
-1.1742 -1.0614 -0.9376 -0.8294 -0.7258 -0.6002
-0.4920 -0.3902 -0.3077 -0.2380 -0.1701 -0.0977
-0.0335 0.0325 0.0802 0.0995 0.1866 0.2297
0.2489 0.3113 0.3250 0.3516 0.3883 0.4186
0.4580 0.4699 0.4754 0.5057 0.5304 0.5112
0.5075 0.5304 0.5442 0.5570 0.5570 0.5451
0.5075 0.4873 0.4754 0.4250 0.4167 0.4112
0.3544 0.3415 0.3250 0.2636 0.2462 0.2196
0.1728 0.1398 0.0866 0.0545 0.0059 -0.0537
-0.0839 -0.1509 -0.1967 -0.2380 -0.2875 -0.3178
-0.3783 -0.4232 -0.4773 -0.5140 -0.5553 -0.6103
-0.6378 -0.6699 -0.7056 -0.7350 -0.7551 -0.8267
-0.8203 -0.8212 -0.8890 -0.8863 -0.9046 -0.9285
-0.9523 -0.9395 -0.9257 -0.9615 -0.9706 -0.9807
-0.9661 -0.9670 -0.9844 -0.9853 -1.0046 -1.0055
-0.9945 -0.9743 -0.9725 -1.0009 -0.9936 -0.9633
-0.9560 -0.9541 -0.9697 -0.9743 -0.9605 -0.9661
-0.9431 -0.9450 -0.9596 -0.9505 -0.9431 -0.9257
-0.9184 -0.8826 -0.8909 -0.8771 -0.8478 -0.8606
-0.8368 -0.8542 -0.8175 -0.7827 -0.8147 -0.7937
-0.7735 -0.7872 -0.7561 -0.7414 -0.7753 -0.7652
-0.7478 -0.7084 -0.6974 -0.7084 -0.7020 -0.6983
-0.6827 -0.6836 -0.6662 -0.6570 -0.6644 -0.6442
-0.6589 -0.6570 -0.6405 -0.6809 -0.6634 -0.6378
-0.6185 -0.6020 -0.6103 -0.6002 -0.6048 -0.5708
-0.5543 -0.5662 -0.5516 -0.5259 -0.5250 -0.5250
-0.5030 -0.5002 -0.4929 -0.4782 -0.4571 -0.4305
-0.4214 -0.4214 -0.4085 -0.3856 -0.3508 -0.3361
-0.3104 -0.2737 -0.2609 -0.2178 -0.1940 -0.1527
-0.0949 -0.1004 -0.0702 -0.0023 0.0280 0.0371
0.0775 0.1132 0.1646 0.2334 0.2389 0.2755
0.3342 0.3535 0.3993 0.4158 0.4635 0.5268
0.5139 0.5580 0.6038 0.6469 0.6909 0.6863
0.7514 0.8120 0.8386 0.8450 0.8927 0.9568
0.9596 0.9926 1.0155 1.0632 1.1026 1.1311
1.1668 1.2118 1.2906 1.2796 1.3025 1.3704
1.3768 1.4181 1.4502 1.4749 1.4951 1.4832
1.5309 1.5620 1.5611 1.5786 1.5896 1.6042
1.6226 1.6382 1.6290 1.6262 1.6152 1.6042
1.6134 1.5822 1.5483 1.5300 1.4905 1.4300
1.3704 1.3080 1.2200 1.1256 1.0522 0.9789
0.8844 0.8065 0.7111 0.6066 0.5314 0.4314
0.3425 0.2535 0.1334 0.0344 -0.0527 -0.1701
-0.2902 -0.3819 -0.4690 -0.5369 -0.6405 -0.7258
-0.7735 -0.8514 -0.9037 -0.9743 -1.0458 -1.0963
-1.1549 -1.1944 -1.2301 -1.2824 -1.3172 -1.3558
-1.3842 -1.4034 -1.4520 -1.4364 -1.4511 -1.4695
-1.4447 -1.4786 -1.4658 -1.4456 -1.4465 -1.4585
-1.4594 -1.4410 -1.4612 -1.4915 -1.4511 -1.3988
-1.4016 -1.3732 -1.3567 -1.3191 -1.2943 -1.2613
-1.1999 -1.2008 -1.1604 -1.0981 -1.0284 -1.0101
-0.9853 -0.8991 -0.8679 -0.8386 -0.7606 -0.6964
-0.6964 -0.6185 -0.5800 -0.5396 -0.4452 -0.4232
-0.3425 -0.3012 -0.2636 -0.2169 -0.1719 -0.1243
-0.1316 -0.1059 -0.0766 -0.0436 -0.0161 0.0087
0.0417 0.0738 0.0866 0.1032 0.1206 0.1169
0.1609 0.1829 0.1802 0.1692 0.1444 0.2013
0.2031 0.1903 0.2297 0.1912 0.2013 0.1930
0.1728 0.1765 0.1233 0.1206 0.0903 0.0518
0.0188 -0.0142 -0.0298 -0.0931 -0.1077 -0.1123
-0.1371 -0.1619 -0.1884 -0.1903 -0.2160 -0.2288
-0.2270 -0.2508 -0.2490 -0.2334 -0.2517 -0.2425
-0.2361 -0.2462 -0.2279 -0.2370 -0.2370 -0.2068
-0.2068 -0.1976 -0.1664 -0.1756 -0.1729 -0.1032
-0.0610 -0.0536 -0.0234 0.0206 0.0637 0.0940
0.1353 0.1921 0.2324 0.2581 0.3104 0.3837
0.4122 0.4773 0.5525 0.5983 0.6864 0.7790
0.8542 0.9376 1.0421 1.1375 1.1971 1.2585
1.3631 1.4529 1.5300 1.6070 1.6776 1.7629
1.8527 1.9353 2.0352 2.1223 2.1618 2.2571
2.3103 2.3562 2.4607 2.5075 2.5396 2.5891
2.6716 2.7138 2.7330 2.7715 2.8064 2.8614
2.8825 2.9045 2.9329 2.9384 2.9293 2.9155
2.9036 2.8550 2.8394 2.8156 2.7660 2.7358
2.6753 2.5946 2.5093 2.4359 2.3167 2.2104
2.1425 1.9857 1.8289 1.7299 1.5951 1.4337
1.3108 1.1705 1.0293 0.9165 0.7680 0.6277
0.4791 0.3333 0.2288 0.1022 -0.0582 -0.1866
-0.2774 -0.3993 -0.4938 -0.5726 -0.6900 -0.7615
-0.8138 -0.8734 -0.9385 -0.9871 -1.0531 -1.1338
-1.1494 -1.1824 -1.2209 -1.2494 -1.2870 -1.2897
-1.3007 -1.3291 -1.3466 -1.3429 -1.3310 -1.3071
-1.2714 -1.2622 -1.2576 -1.2118 -1.1549 -1.1329
-1.1127 -1.0660 -1.0155 -0.9752 -0.9266 -0.8505
-0.7918 -0.7432 -0.6845 -0.6322 -0.5681 -0.4975
-0.4479 -0.3847 -0.2976 -0.2324 -0.1765 -0.1252
-0.0857 -0.0454 0.0307 0.0766 0.0949 0.1719
0.2040 0.2160 0.2765 0.2866 0.2902 0.3232
0.3333 0.3645 0.3663 0.3544 0.3948 0.3902
0.3792 0.3801 0.3370 0.3168 0.2838 0.2398
0.2169 0.1774 0.1380 0.0702 0.0170 -0.0133
-0.0729 -0.1352 -0.1866 -0.2361 -0.2691 -0.2957
-0.3214 -0.3351 -0.4039 -0.4699 -0.4809 -0.5222
-0.5589 -0.5864 -0.6432 -0.6781 -0.7157 -0.7570
-0.7945 -0.8367 -0.8468 -0.8945 -0.9211 -0.9156
-0.9523 -0.9761 -0.9972 -1.0366 -1.0806 -1.0935
-1.1045 -1.1320 -1.1733 -1.2109 -1.2209 -1.2274
-1.2182 -1.2439 -1.2714 -1.2503 -1.2457 -1.2549
-1.2915 -1.3310 -1.3209 -1.3227 -1.3814 -1.3860
-1.3658 -1.3952 -1.3933 -1.3777 -1.3502 -1.3566
-1.3741 -1.3502 -1.3438 -1.3420 -1.3447 -1.3273
-1.3273 -1.3328 -1.3090 -1.3227 -1.3264 -1.3154
-1.3172 -1.3191 -1.3090 -1.2879 -1.2860 -1.2769
-1.2897 -1.2915 -1.2686 -1.2732 -1.2915 -1.3016
-1.2888 -1.2879 -1.2723 -1.2989 -1.3365 -1.3126
-1.3273 -1.3521 -1.3493 -1.3704 -1.4052 -1.4309
-1.4364 -1.4566 -1.4933 -1.5263 -1.5776 -1.6217
-1.6767 -1.7253 -1.7619 -1.8133 -1.8481 -1.9077
-1.9554 -2.0068 -2.0728 -2.1159 -2.1874 -2.2507
-2.3039 -2.3525 -2.3782 -2.4112 -2.4515 -2.4854
-2.4974 -2.5038 -2.5029 -2.5093 -2.5084 -2.4809
-2.4836 -2.4864 -2.4643 -2.4524 -2.4286 -2.4148
-2.3827 -2.3396 -2.3360 -2.2975 -2.2690 -2.2232
-2.1691 -2.1700 -2.1058 -2.0765 -2.0517 -1.9829
-1.9664 -1.9362 -1.8903 -1.8316 -1.7986 -1.7931
-1.7253 -1.6602 -1.6391 -1.5969 -1.5400 -1.4823
-1.4300 -1.3676 -1.3218 -1.3035 -1.2539 -1.2044
-1.1274 -1.0889 -1.0357 -0.9376 -0.9082 -0.8175
-0.7368 -0.7175 -0.6561 -0.5937 -0.5369 -0.4846
-0.4406 -0.3837 -0.3049 -0.2627 -0.2343 -0.1774
-0.1508 -0.1279 -0.0857 -0.0270 -0.0023 -0.0096
0.0216 0.0555 0.0830 0.0977 0.1068 0.1224
0.1252 0.1454 0.1591 0.1499 0.1830 0.1958
0.1839 0.1912 0.1875 0.1995 0.1976 0.2077
0.2160 0.2095 0.2187 0.2141 0.2316 0.2618
0.3031 0.3214 0.3214 0.3003 0.3049 0.3462
0.3498 0.3829 0.3664 0.3847 0.4434 0.4305
0.4553 0.4590 0.4773 0.5167 0.5048 0.5158
0.5708 0.5800 0.5663 0.6139 0.6378 0.6515
0.6607 0.6543 0.7047 0.6965 0.7038 0.7579
0.7634 0.7909 0.7698 0.8184 0.8909 0.8826
0.9193 0.9193 0.9230 0.9679 1.0036 1.0110
1.0119 1.0486 1.0743 1.1109 1.1531 1.1485
1.1623 1.1870 1.2054 1.2283 1.2274 1.2586
1.2861 1.2787 1.2962 1.3292 1.3585 1.3677
1.3576 1.3383 1.3393 1.3759 1.3824 1.4172
1.4365 1.3989 1.4264 1.4484 1.4750 1.4594
1.4135 1.4759 1.5263 1.4979 1.4759 1.5364
1.5694 1.5456 1.5676 1.5905 1.6162 1.6162
1.6171 1.6529 1.6254 1.6391 1.6584 1.6483
1.6565 1.6364 1.6639 1.6483 1.6373 1.6492
1.6144 1.6006 1.5667 1.5703 1.5529 1.4970
1.4786 1.4227 1.3429 1.3063 1.2668 1.1733
1.0688 0.9826 0.8918 0.8065 0.7515 0.6515
0.5470 0.4691 0.3645 0.2820 0.1802 0.1087
0.0436 -0.0729 -0.1279 -0.2067 -0.3195 -0.3874
-0.4690 -0.5735 -0.6597 -0.7129 -0.8175 -0.8945
-0.9532 -1.0494 -1.1109 -1.1787 -1.2218 -1.3071
-1.3695 -1.4116 -1.4841 -1.5088 -1.5538 -1.6051
-1.6831 -1.7271 -1.7298 -1.7830 -1.8261 -1.8041
-1.8096 -1.8481 -1.8582 -1.8390 -1.7959 -1.7977
-1.7867 -1.7308 -1.6895 -1.6565 -1.6106 -1.5501
-1.4896 -1.4227 -1.3502 -1.2869 -1.2365 -1.1366
-1.0329 -0.9623 -0.8743 -0.8083 -0.7083 -0.5965
-0.5222 -0.4452 -0.3214 -0.2517 -0.2223 -0.0747
0.0051 0.1206 0.2169 0.1885 0.3150 0.4342
0.4819 0.5498 0.6332 0.7157 0.7478 0.8083
0.8991 0.9450 1.0055 1.0532 1.0715 1.1394
1.1705 1.2100 1.2540 1.2448 1.2677 1.2787
1.3035 1.3393 1.3154 1.3530 1.3989 1.4007
1.3934 1.3943 1.4356 1.4080 1.4154 1.4200
1.3695 1.3805 1.3888 1.4218 1.3631 1.2467
1.2549 1.2659 1.2201 1.2036 1.1825 1.1348
1.0954 1.0623 1.0513 1.0385 1.0275 0.9725
0.9477 0.9505 0.8918 0.8716 0.8414 0.7946
0.7552 0.7047 0.6937 0.6708 0.6231 0.5791
0.5626 0.5433 0.4782 0.4535 0.4443 0.3948
0.3499 0.3517 0.3260 0.2811 0.3058 0.3003
0.2893 0.2756 0.2252 0.2563 0.3187 0.3416
0.3526 0.3609 0.3948 0.4278 0.4526 0.4975
0.5534 0.5901 0.6011 0.6625 0.7286 0.7772
0.8441 0.8881 0.9459 0.9963 1.0743 1.1706
1.1935 1.2549 1.3503 1.4319 1.4979 1.5795
1.6841 1.7198 1.7978 1.8876 1.9665 2.0646
2.0655 2.1444 2.2627 2.2975 2.3489 2.4011
2.4561 2.5222 2.6157 2.6395 2.6524 2.7065
2.7202 2.7954 2.8358 2.8367 2.8899 2.9192
2.9366 2.9339 2.9266 2.9091 2.8651 2.8239
2.7881 2.7542 2.6836 2.5854 2.5203 2.4195
2.2838 2.2223 2.1325 2.0224 1.9179 1.8170
1.7152 1.5520 1.4273 1.2668 1.1238 1.0046
0.8084 0.6387 0.4902 0.3719 0.2215 0.0665
-0.0820 -0.2416 -0.3507 -0.4818 -0.6194 -0.7588
-0.8954 -0.9981 -1.1237 -1.2658 -1.3896 -1.5052
-1.6354 -1.7546 -1.8389 -1.9233 -2.0278 -2.1113
-2.1819 -2.2607 -2.3240 -2.4029 -2.4964 -2.5606
-2.5945 -2.6468 -2.7036 -2.7467 -2.8018 -2.8118
-2.8467 -2.8788 -2.8650 -2.8971 -2.8705 -2.8339
-2.8229 -2.7605 -2.7449 -2.7376 -2.6917 -2.6395
-2.5826 -2.5111 -2.4276 -2.3781 -2.3350 -2.2479
-2.1645 -2.0737 -1.9334 -1.8499 -1.7830 -1.6537
-1.5455 -1.4566 -1.3750 -1.2768 -1.1723 -1.0687
-0.9623 -0.8761 -0.7780 -0.6762 -0.5726 -0.4727
-0.3773 -0.2929 -0.2214 -0.1242 -0.0334 0.0454
0.1197 0.2105 0.3049 0.3535 0.4186 0.4718
0.5113 0.5626 0.5892 0.6488 0.6653 0.6745
0.7341 0.7267 0.7378 0.7460 0.7414 0.7322
0.7075 0.7102 0.6873 0.6497 0.6149 0.5874
0.5507 0.5131 0.4572 0.4012 0.3774 0.3123
0.2444 0.2096 0.1784 0.1215 0.0665 0.0161
-0.0655 -0.1178 -0.1655 -0.2370 -0.2599 -0.2773
-0.3232 -0.3507 -0.3709 -0.4057 -0.4240 -0.4204
-0.4222 -0.4231 -0.4323 -0.4360 -0.4396 -0.4286
-0.3736 -0.3342 -0.3168 -0.2966 -0.2590 -0.2159
-0.1801 -0.1361 -0.0976 -0.0362 0.0280 0.0858
0.1527 0.2059 0.2710 0.3490 0.4076 0.4718
0.5617 0.6506 0.7561 0.8340 0.9083 0.9936
1.0697 1.1715 1.2164 1.2861 1.3888 1.4548
1.5199 1.5731 1.6694 1.7418 1.8033 1.8886
1.9610 2.0261 2.0664 2.1517 2.2058 2.2333
2.3021 2.3718 2.4048 2.4121 2.4635 2.4910
2.5038 2.5167 2.5066 2.5112 2.5185 2.5093
2.4718 2.4222 2.3516 2.2801 2.1985 2.0903
2.0050 1.8904 1.7859 1.6905 1.5676 1.4668
1.3237 1.1907 1.0954 0.9633 0.8285 0.6681
0.4993 0.3480 0.1766 0.0179 -0.1490 -0.2984
-0.4341 -0.5799 -0.6863 -0.8110 -0.9669 -1.0916
-1.2264 -1.3759 -1.4877 -1.6363 -1.7454 -1.8518
-2.0104 -2.1076 -2.2314 -2.3368 -2.4285 -2.5542
-2.6660 -2.7339 -2.8155 -2.9008 -2.9714 -3.0567
-3.1007 -3.1740 -3.2254 -3.2401 -3.2841 -3.3253
-3.3327 -3.3263 -3.3098 -3.2832 -3.2703 -3.2584
-3.2355 -3.1484 -3.1007 -3.0466 -2.9787 -2.9375
-2.8476 -2.7825 -2.6789 -2.5918 -2.5028 -2.3717
-2.2763 -2.1755 -2.0746 -1.9288 -1.8078 -1.7069
-1.5611 -1.4382 -1.3007 -1.1530 -1.0402 -0.9018
-0.7395 -0.6056 -0.4699 -0.3186 -0.1865 -0.0591
0.0693 0.2178 0.3737 0.4645 0.5782 0.6993
0.8056 0.8964 0.9670 1.0908 1.1623 1.1917
1.2788 1.3586 1.3879 1.4282 1.4576 1.4823
1.5328 1.5337 1.5456 1.5823 1.5786 1.5685
1.5731 1.5328 1.4915 1.4723 1.4163 1.3741
1.2971 1.2338 1.1935 1.1027 1.0147 0.9285
0.8799 0.8120 0.7167 0.6351 0.5388 0.4682
0.3746 0.2591 0.1931 0.0941 -0.0178 -0.1095
-0.2159 -0.2920 -0.3938 -0.4836 -0.5552 -0.6597
-0.7386 -0.8376 -0.9275 -0.9761 -1.0549 -1.1411
-1.1668 -1.2429 -1.3493 -1.3814 -1.4373 -1.4941
-1.5143 -1.5510 -1.5858 -1.6133 -1.6519 -1.6674
-1.6785 -1.6674 -1.6766 -1.6922 -1.6519 -1.6372
-1.6179 -1.6124 -1.5657 -1.5207 -1.5006 -1.4520
-1.4575 -1.4162 -1.3814 -1.3676 -1.3282 -1.3236
-1.2787 -1.2282 -1.2108 -1.1613 -1.1118 -1.0833
-1.0531 -1.0210 -0.9834 -0.9495 -0.9192 -0.8990
-0.8779 -0.8532 -0.8532 -0.8119 -0.7578 -0.7670
-0.7771 -0.7386 -0.7138 -0.7193 -0.6945 -0.6817
-0.6771 -0.6634 -0.6780 -0.6716 -0.6441 -0.6423
-0.6313 -0.6276 -0.6478 -0.6542 -0.6762 -0.6936
-0.6817 -0.7046 -0.7303 -0.7505 -0.7789 -0.7954
-0.8183 -0.8376 -0.8917 -0.9375 -0.9540 -0.9935
-1.0705 -1.1374 -1.1429 -1.1860 -1.2475 -1.3107
-1.3612 -1.3685 -1.4299 -1.4914 -1.5382 -1.6124
-1.6601 -1.7023 -1.7747 -1.8178 -1.8793 -1.9774
-2.0021 -2.0351 -2.0938 -2.1287 -2.1608 -2.2066
-2.2369 -2.2561 -2.2956 -2.3167 -2.3405 -2.3488
-2.3598 -2.3570 -2.3708 -2.3717 -2.3368 -2.3249
-2.2580 -2.2424 -2.2149 -2.1232 -2.0819 -2.0196
-1.9425 -1.8518 -1.7591 -1.6913 -1.5932 -1.4758
-1.3804 -1.2612 -1.1466 -1.0842 -0.9825 -0.8357
-0.7431 -0.6551 -0.5267 -0.4259 -0.3296 -0.2269
-0.1150 0.0033 0.1060 0.1958 0.2793 0.3526
0.4609 0.5681 0.6433 0.7213 0.7690 0.8698
0.9588 1.0101 1.1128 1.1843 1.2265 1.2944
1.3870 1.4411 1.4943 1.5539 1.6034 1.6547
1.6942 1.7593 1.7895 1.8143 1.8473 1.8721
1.9133 1.9133 1.9317 1.9674 1.9684 1.9830
1.9904 1.9922 1.9940 1.9849 1.9794 1.9518
1.9344 1.9152 1.8987 1.8785 1.8262 1.8015
1.7584 1.7043 1.6401 1.5603 1.5282 1.4732
1.3787 1.2944 1.2064 1.1275 1.0587 0.9863
0.8918 0.7845 0.6873 0.5782 0.4709 0.3902
0.2857 0.1647 0.0766 -0.0123 -0.1288 -0.2214
-0.2984 -0.4194 -0.5313 -0.6001 -0.6780 -0.7826
-0.8532 -0.8898 -0.9779 -1.0769 -1.1457 -1.1943
-1.2539 -1.3181 -1.3621 -1.4336 -1.4666 -1.4694
-1.5079 -1.5299 -1.5134 -1.5051 -1.5299 -1.5299
-1.4996 -1.4850 -1.4859 -1.4474 -1.4153 -1.4153
-1.3630 -1.3126 -1.2612 -1.1989 -1.2071 -1.1466
-1.0512 -1.0402 -1.0063 -0.9366 -0.8807 -0.8522
-0.7826 -0.7193 -0.6670 -0.6037 -0.5726 -0.4983
-0.4396 -0.4048 -0.3479 -0.2654 -0.1819 -0.1297
-0.0792 -0.0068 0.0739 0.1170 0.1528 0.2307
0.3178 0.3774 0.4297 0.4737 0.5305 0.6048
0.6663 0.7213 0.7800 0.8276 0.8726 0.9129
0.9478 1.0065 1.0477 1.0890 1.1312 1.1724
1.2293 1.2394 1.2650 1.3008 1.2999 1.3338
1.3696 1.3732 1.3714 1.3751 1.3769 1.3622
1.3503 1.3393 1.3283 1.3173 1.3191 1.3210
1.2990 1.2678 1.2458 1.2375 1.2027 1.1623
1.1513 1.1018 1.0505 1.0615 1.0358 0.9588
0.9395 0.9157 0.8249 0.7946 0.7580 0.6874
0.6534 0.5929 0.5260 0.4893 0.4728 0.4334
0.3811 0.3279 0.2747 0.2637 0.2188 0.1418
0.0941 0.0721 0.0473 -0.0068 -0.0389 -0.0609
-0.1049 -0.1333 -0.1453 -0.1563 -0.1718 -0.1966
-0.2351 -0.2535 -0.2516 -0.2599 -0.2535 -0.2571
-0.2626 -0.2645 -0.2709 -0.2498 -0.2296 -0.2397
-0.2397 -0.2370 -0.2415 -0.2223 -0.2039 -0.1865
-0.1728 -0.1618 -0.1563 -0.1544 -0.1205 -0.0893
-0.0957 -0.0976 -0.0811 -0.0838 -0.0572 -0.0636
-0.0673 -0.0380 -0.0536 -0.0187 -0.0343 -0.0554
-0.0416 -0.0554 -0.0416 -0.0783 -0.1012 -0.0985
-0.1214 -0.1232 -0.1287 -0.1425 -0.1471 -0.1618
-0.1489 -0.1315 -0.1755 -0.1856 -0.1764 -0.1939
-0.2085 -0.2617 -0.2700 -0.2883 -0.3277 -0.3277
-0.3864 -0.3901 -0.3855 -0.3974 -0.3947 -0.4350
-0.4213 -0.4579 -0.4754 -0.4634 -0.5084 -0.5203
-0.5551 -0.5359 -0.5295 -0.5515 -0.5130 -0.5148
-0.4955 -0.4827 -0.4827 -0.4442 -0.4103 -0.4029
-0.3864 -0.3259 -0.3195 -0.2855 -0.2241 -0.1902
-0.1269 -0.0976 -0.0462 0.0216 0.0712 0.1253
0.1629 0.2041 0.2518 0.3206 0.3783 0.4233
0.4682 0.5461 0.6296 0.6635 0.7030 0.7580
0.8598 0.9414 0.9909 1.0404 1.0670 1.1514
1.2137 1.2651 1.3283 1.3623 1.4365 1.5007
1.5631 1.6447 1.6969 1.7254 1.7721 1.8437
1.8895 1.9390 1.9675 1.9757 2.0161 2.0601
2.0977 2.0922 2.1133 2.1564 2.1857 2.2242
2.2178 2.2407 2.2554 2.2499 2.2801 2.2866
2.3077 2.3122 2.3067 2.3141 2.3214 2.3242
2.3132 2.3187 2.3077 2.3168 2.3205 2.2976
2.2893 2.2728 2.2765 2.2572 2.2416 2.2160
2.1481 2.1169 2.0912 2.0757 2.0289 1.9638
1.9510 1.9060 1.8501 1.8171 1.7758 1.7235
1.6493 1.6199 1.5842 1.5035 1.4595 1.4072
1.3384 1.2660 1.2091 1.1633 1.0899 1.0441
0.9735 0.9267 0.9111 0.8295 0.7937 0.7681
0.6837 0.6113 0.5801 0.5425 0.4911 0.4288
0.3646 0.3288 0.2711 0.2536 0.2188 0.1436
0.1088 0.0620 0.0492 0.0308 -0.0068 -0.0361
-0.0829 -0.1058 -0.1370 -0.1526 -0.1636 -0.2324
-0.2452 -0.2296 -0.2553 -0.2727 -0.2782 -0.2699
-0.2791 -0.3112 -0.3094 -0.3030 -0.3075 -0.2901
-0.3066 -0.3222 -0.3011 -0.2975 -0.3002 -0.2855
-0.2901 -0.2782 -0.2424 -0.2553 -0.2268 -0.2030
-0.1957 -0.1526 -0.1553 -0.1379 -0.1012 -0.0847
-0.0545 -0.0407 -0.0196 0.0061 0.0097 0.0482
0.0482 0.0684 0.1354 0.1335 0.1473 0.1693
0.2087 0.2216 0.2142 0.2546 0.2775 0.2802
0.2546 0.2812 0.3114 0.3022 0.3077 0.2885
0.2912 0.3013 0.3059 0.2958 0.2527 0.2527
0.2518 0.2271 0.2041 0.1748 0.1509 0.1372
0.1280 0.0803 0.0354 0.0299 -0.0187 -0.0865
-0.1370 -0.1782 -0.2158 -0.2745 -0.3140 -0.3736
-0.4524 -0.5065 -0.5716 -0.6542 -0.7101 -0.7559
-0.8320 -0.8962 -0.9632 -1.0246 -1.0915 -1.1887
-1.2493 -1.3180 -1.4024 -1.4593 -1.5244 -1.5885
-1.6500 -1.7224 -1.7802 -1.8517 -1.9196 -1.9608
-2.0269 -2.1195 -2.1708 -2.2057 -2.2699 -2.3166
-2.3634 -2.3991 -2.4422 -2.4973 -2.5312 -2.5880
-2.6110 -2.6256 -2.6687 -2.6898 -2.7109 -2.7421
-2.7632 -2.7806 -2.8017 -2.8274 -2.8329 -2.8347
-2.8659 -2.8787 -2.8952 -2.9145 -2.9182 -2.9457
-2.9512 -2.9420 -2.9576 -2.9567 -2.9631 -2.9695
-2.9374 -2.9273 -2.9310 -2.9310 -2.9026 -2.8961
-2.8906 -2.8485 -2.8567 -2.8283 -2.8090 -2.8118
-2.7879 -2.7586 -2.7091 -2.7008 -2.7027 -2.6715
-2.6045 -2.5605 -2.5440 -2.5174 -2.4789 -2.3973
-2.3496 -2.3111 -2.2726 -2.2185 -2.1552 -2.1167
-2.0571 -2.0424 -1.9617 -1.8792 -1.8590 -1.7490
-1.6766 -1.6656 -1.6041 -1.5234 -1.4703 -1.4097
-1.3455 -1.3116 -1.2658 -1.1942 -1.1328 -1.0778
-1.0283 -0.9815 -0.9274 -0.8852 -0.8320 -0.7871
-0.7578 -0.7202 -0.6872 -0.6633 -0.6505 -0.6294
-0.5955 -0.5771 -0.5615 -0.5148 -0.4772 -0.4781
-0.4653 -0.4249 -0.4203 -0.4093 -0.3653 -0.3497
-0.3231 -0.3075 -0.2919 -0.2672 -0.2690 -0.2461
-0.2122 -0.2149 -0.2177 -0.1718 -0.1397 -0.1095
-0.0719 -0.0829 -0.0636 -0.0141 -0.0086 0.0052
0.0217 0.0262 0.0629 0.0703 0.0932 0.1225
0.1299 0.1601 0.1711 0.1867 0.1775 0.1977
0.2115 0.1959 0.2170 0.2170 0.2372 0.2491
0.2830 0.3050 0.2986 0.3316 0.3114 0.3087
0.3380 0.3197 0.3224 0.3499 0.3389 0.3178
0.3536 0.3573 0.3270 0.3454 0.3463 0.3454
0.3344 0.3050 0.3013 0.2858 0.2702 0.2463
0.2427 0.2188 0.1565 0.1436 0.1106 0.0950
0.0583 0.0189 0.0162 -0.0416 -0.0544 -0.1095
-0.1718 -0.2030 -0.2883 -0.3305 -0.3836 -0.4396
-0.4891 -0.5450 -0.6037 -0.6651 -0.6862 -0.7413
-0.8054 -0.8375 -0.8852 -0.9384 -0.9861 -1.0246
-1.0613 -1.1035 -1.1658 -1.2135 -1.2373 -1.2813
-1.3235 -1.3593 -1.3923 -1.4143 -1.4409 -1.4812
-1.5161 -1.5253 -1.5381 -1.5583 -1.5830 -1.6307
-1.6380 -1.6591 -1.6967 -1.6793 -1.7224 -1.7747
-1.7646 -1.7802 -1.8242 -1.8645 -1.8691 -1.8765
-1.9131 -1.9682 -2.0122 -2.0296 -2.0681 -2.1048
-2.1405 -2.1772 -2.2057 -2.2414 -2.2708 -2.2974
-2.3221 -2.3579 -2.3872 -2.4156 -2.4450 -2.4431
-2.4679 -2.5110 -2.5248 -2.5422 -2.5550 -2.5605
-2.5660 -2.5679 -2.5706 -2.5293 -2.5037 -2.5156
-2.4697 -2.4422 -2.4147 -2.3680 -2.3725 -2.3368
-2.2909 -2.2753 -2.2332 -2.1827 -2.1405 -2.1011
-2.0470 -1.9984 -1.9388 -1.8930 -1.8508 -1.7985
-1.7728 -1.7187 -1.6866 -1.6390 -1.5748 -1.5500
-1.5014 -1.4730 -1.4354 -1.4005 -1.3648 -1.3034
-1.2740 -1.2401 -1.1896 -1.1218 -1.0814 -1.0420
-0.9870 -0.9641 -0.8990 -0.8348 -0.8256 -0.7825
-0.7165 -0.6578 -0.5936 -0.5670 -0.5303 -0.4790
-0.4377 -0.3745 -0.3204 -0.2727 -0.2076 -0.1425
-0.1085 -0.0508 0.0143 0.0602 0.1225 0.1629
0.2243 0.2647 0.2922 0.3646 0.4196 0.4747
0.5049 0.5361 0.5966 0.6360 0.6663 0.7012
0.7360 0.7635 0.7965 0.8314 0.8662 0.8974
0.9148 0.9469 0.9744 0.9973 1.0239 1.0313
1.0432 1.0634 1.0744 1.1028 1.1193 1.1000
1.1129 1.1413 1.1385 1.1468 1.1661 1.1596
1.1670 1.1807 1.1972 1.2147 1.1908 1.1862
1.1844 1.1945 1.2357 1.2211 1.2137 1.2477
1.2614 1.2623 1.2587 1.2523 1.2614 1.2724
1.2651 1.2733 1.2899 1.3164 1.3412 1.3357
1.3412 1.3440 1.3458 1.3632 1.3825 1.3815
1.4017 1.4347 1.4100 1.4237 1.4384 1.4347
1.4586 1.4366 1.4256 1.4604 1.5008 1.4907
1.4980 1.5255 1.5008 1.5292 1.5374 1.5439
1.5870 1.5870 1.6227 1.6521 1.6521 1.6897
1.7025 1.7071 1.7373 1.7438 1.7603 1.7804
1.7924 1.8153 1.8318 1.8465 1.8602 1.8822
1.9235 1.9345 1.9327 1.9629 1.9537 1.9556
1.9739 1.9629 1.9730 1.9647 1.9519 1.9647
1.9666 1.9556 1.9556 1.9446 1.9290 1.9482
1.9372 1.9033 1.9070 1.8886 1.8703 1.8841
1.8584 1.8437 1.8510 1.8474 1.8474 1.8318
1.8327 1.8235 1.8089 1.8006 1.7795 1.7896
1.7887 1.7713 1.7538 1.7227 1.7483 1.7566
1.7218 1.7025 1.7080 1.7117 1.6722 1.6924
1.6970 1.6667 1.6502 1.6301 1.6246 1.5851
1.5466 1.5182 1.5118 1.4567 1.4265 1.4430
1.3834 1.3669 1.3375 1.2981 1.2917 1.2807
1.2642 1.2183 1.2064 1.1908 1.1596 1.1413
1.1221 1.0964 1.0735 1.0569 1.0239 1.0230
1.0111 0.9597 0.9469 0.9148 0.8864 0.8965
0.8708 0.8415 0.8167 0.7929 0.7938 0.7919
0.7699 0.7461 0.7268 0.6966 0.6746 0.6782
0.6663 0.6489 0.6498 0.6397 0.6342 0.6196
0.6104 0.5966 0.5884 0.5985 0.5544 0.5902
0.5783 0.5352 0.5994 0.5710 0.5746 0.5875
0.5939 0.6150 0.5994 0.6379 0.6241 0.5930
0.6150 0.6241 0.6416 0.6544 0.6498 0.6627
0.6672 0.6709 0.6847 0.7039 0.7094 0.7204
0.7498 0.7580 0.7727 0.7919 0.8185 0.8158
0.8277 0.8525 0.8772 0.8836 0.8928 0.9790
0.9726 0.9827 1.0322 1.0249 1.0625 1.0670
1.0661 1.0845 1.0863 1.1019 1.1166 1.1101
1.1129 1.1312 1.1395 1.1276 1.1248 1.1230
1.0964 1.1028 1.0863 1.0625 1.0441 1.0239
1.0212 0.9845 0.9772 0.9442 0.9157 0.8818
0.8561 0.8681 0.8185 0.8094 0.7727 0.7397
0.7378 0.7012 0.6865 0.6232 0.5792 0.5545
0.5132 0.4921 0.4380 0.3857 0.3335 0.2885
0.2720 0.2188 0.1693 0.1326 0.1079 0.0602
-0.0086 -0.0223 -0.0407 -0.0828 -0.1562 -0.1865
-0.1745 -0.2250 -0.2690 -0.2992 -0.3249 -0.3433
-0.3579 -0.4010 -0.4386 -0.4395 -0.4808 -0.4909
-0.4891 -0.4955 -0.4909 -0.5138 -0.5028 -0.4900
-0.4909 -0.4836 -0.4762 -0.4570 -0.4249 -0.4194
-0.4038 -0.3928 -0.3854 -0.3313 -0.3057 -0.2772
-0.2727 -0.2112 -0.1443 -0.1278 -0.0572 -0.0709
-0.0333 0.0474 0.0978 0.1492 0.1565 0.2106
0.2473 0.2619 0.3069 0.3270 0.3619 0.4169
0.4325 0.4591 0.4949 0.5004 0.5315 0.5645
0.5719 0.5930 0.6205 0.6177 0.6232 0.6251
0.6471 0.6856 0.6764 0.6654 0.6553 0.6902
0.6581 0.6095 0.6783 0.6828 0.6654 0.6553
0.6370 0.6297 0.6113 0.6067 0.6113 0.6086
0.5893 0.5966 0.5710 0.5884 0.6104 0.5535
0.5425 0.5279 0.5196 0.5040 0.4939 0.4820
0.4444 0.4417 0.4096 0.3885 0.3885 0.4050
0.3958 0.3637 0.3646 0.3289 0.3371 0.3344
0.2849 0.2950 0.2904 0.2647 0.2675 0.2821
0.2785 0.2390 0.2244 0.2308 0.1941 0.1831
0.1904 0.1703 0.1574 0.1409 0.1400 0.1106
0.0914 0.1088 0.0795 0.0483 0.0391 0.0217
-0.0058 -0.0141 -0.0443 -0.0819 -0.0957 -0.1204
-0.1388 -0.1626 -0.1883 -0.2360 -0.2827 -0.2882
-0.3176 -0.3763 -0.4157 -0.4505 -0.4872 -0.5294
-0.5835 -0.6220 -0.6532 -0.6862 -0.7320 -0.7944
-0.8302 -0.8760 -0.9677 -1.0026 -1.0310 -1.0787
-1.1117 -1.1731 -1.2052 -1.2355 -1.2721 -1.3391
-1.3748 -1.3886 -1.4693 -1.5188 -1.5839 -1.6133
-1.6811 -1.7966 -1.8067 -1.8599 -1.9369 -1.9993
-2.0571 -2.1222 -2.1790 -2.2148 -2.2762 -2.3367
-2.3927 -2.4394 -2.5110 -2.5495 -2.6100 -2.7090
-2.7255 -2.7778 -2.8273 -2.8466 -2.9043 -2.9218
-2.9456 -2.9979 -3.0190 -3.0492 -3.0841 -3.0905
-3.1033 -3.1088 -3.1180 -3.1272 -3.1217 -3.1299
-3.1171 -3.0841 -3.0804 -3.0868 -3.0556 -3.0181
-2.9795 -2.9291 -2.8961 -2.8704 -2.8026 -2.7246
-2.6806 -2.6219 -2.5504 -2.4954 -2.4440 -2.3633
-2.2891 -2.2166 -2.1478 -2.0846 -2.0039 -1.9287
-1.8324 -1.7756 -1.7141 -1.6151 -1.5408 -1.4665
-1.4023 -1.3345 -1.2419 -1.1593 -1.1107 -1.0438
-0.9659 -0.8971 -0.8311 -0.7531 -0.6954 -0.6403
-0.5551 -0.5055 -0.4322 -0.3653 -0.3148 -0.2460
-0.1883 -0.1406 -0.1048 -0.0342 0.0474 0.1097
0.1611 0.2280 0.2739 0.2931 0.3592 0.4023
0.4261 0.4793 0.5150 0.5554 0.6132 0.6599
0.6792 0.7094 0.7599 0.7736 0.8076 0.8341
0.8543 0.8974 0.9121 0.9414 0.9726 0.9836
0.9744 0.9873 1.0194 1.0396 1.0524 1.0643
1.1065 1.1047 1.1083 1.1459 1.1606 1.1643
1.1743 1.2074 1.2220 1.2220 1.2266 1.2459
1.2495 1.2688 1.2881 1.3027 1.3348 1.3504
1.3889 1.3972 1.4073 1.4559 1.4788 1.5109
1.5485 1.5751 1.6301 1.6512 1.6594 1.6952
1.7117 1.7475 1.7612 1.7740 1.8126 1.8346
1.8758 1.9125 1.9180 1.9345 1.9620 1.9739
1.9804 2.0070 2.0354 2.0482 2.0666 2.0831
2.0941 2.1087 2.1225 2.1372 2.1555 2.1500
2.1518 2.1683 2.1674 2.1592 2.1528 2.1381
2.1142 2.1042 2.0950 2.0904 2.0757 2.0565
2.0482 2.0152 1.9886 1.9694 1.9336 1.9079
1.8694 1.8584 1.8529 1.8309 1.8043 1.7594
1.7594 1.7374 1.6824 1.6539 1.6328 1.5705
1.5100 1.5045 1.4678 1.3981 1.3697 1.3522
1.3036 1.2761 1.2413 1.2028 1.1835 1.1423
1.1248 1.1166 1.0909 1.0542 1.0341 1.0377
1.0341 1.0249 0.9772 0.9680 0.9965 0.9662
0.9497 0.9534 0.9387 0.9231 0.9075 0.8919
0.8782 0.8589 0.8195 0.8030 0.7892 0.7260
0.7095 0.7214 0.6737 0.6352 0.6086 0.5857
0.5682 0.5306 0.5132 0.4894 