Archivo de aceleración parte de la Red Nacional de Acelerógrafos (RENAC) Ecuador
          
Evento: 201604162358
Fecha del evento UTM (aammdd):                  2016    4   16
Hora del registro UTM (hhmmss): 23   58 14.00
Estación:                                      AES2
Componente:                                        Z
Frecuencia de muestreo (Hz):            1.000000e+02
Unidades: cm/s^2
_____________________________________________
0.0000 -0.0000 0.0000 -0.0000 -0.0000 -0.0000
-0.0000 -0.0000 -0.0000 -0.0000 0.0000 -0.0000
0.0000 -0.0000 -0.0000 0.0001 0.0000 -0.0001
-0.0002 -0.0001 -0.0001 -0.0001 -0.0000 -0.0001
-0.0001 -0.0001 -0.0001 0.0000 -0.0000 -0.0004
-0.0003 -0.0001 0.0001 -0.0001 -0.0005 -0.0002
-0.0002 -0.0003 0.0001 -0.0003 -0.0002 0.0004
0.0002 -0.0001 -0.0005 -0.0001 0.0007 -0.0006
-0.0014 0.0003 -0.0001 -0.0006 0.0005 -0.0010
-0.0017 -0.0002 -0.0000 -0.0003 -0.0000 -0.0003
-0.0013 -0.0005 0.0008 -0.0009 -0.0019 -0.0010
-0.0008 -0.0009 -0.0007 0.0004 -0.0008 -0.0017
0.0001 -0.0004 -0.0006 0.0012 0.0015 0.0007
-0.0014 -0.0022 0.0022 0.0014 -0.0005 0.0007
-0.0005 0.0004 -0.0028 0.0011 0.0003 -0.0021
0.0022 -0.0027 -0.0015 -0.0047 -0.0036 0.0007
-0.0020 0.0027 0.0011 0.0003 0.0001 0.0003
0.0028 -0.0008 0.0040 0.0018 -0.0015 0.0013
-0.0025 0.0014 -0.0011 -0.0001 0.0017 -0.0064
-0.0017 -0.0006 0.0013 0.0010 -0.0064 -0.0001
-0.0010 -0.0019 -0.0013 -0.0041 0.0014 0.0021
-0.0011 -0.0027 0.0018 -0.0011 -0.0068 0.0053
0.0016 -0.0008 0.0038 0.0017 0.0082 0.0013
-0.0009 0.0025 0.0018 0.0087 0.0085 0.0074
0.0075 -0.0001 0.0035 0.0052 -0.0010 -0.0014
0.0016 0.0081 -0.0028 -0.0041 0.0065 -0.0006
0.0067 0.0049 0.0008 0.0092 0.0017 0.0056
0.0037 -0.0070 0.0028 0.0058 -0.0012 0.0069
0.0080 0.0019 0.0061 -0.0012 -0.0054 -0.0028
-0.0039 0.0031 0.0042 0.0092 0.0076 -0.0052
-0.0024 -0.0019 -0.0013 0.0027 -0.0013 0.0016
0.0034 -0.0055 -0.0008 0.0059 0.0053 0.0011
-0.0026 0.0123 0.0067 0.0093 0.0138 -0.0053
0.0101 0.0011 -0.0060 0.0149 0.0064 0.0085
0.0145 0.0012 0.0052 0.0087 0.0026 0.0074
0.0123 0.0151 -0.0058 -0.0016 0.0161 -0.0009
0.0063 0.0041 0.0020 -0.0009 -0.0068 0.0182
-0.0002 -0.0032 0.0021 -0.0077 0.0028 -0.0017
0.0029 0.0113 0.0044 -0.0102 -0.0033 0.0037
-0.0080 0.0108 0.0164 0.0046 0.0109 0.0118
0.0070 0.0119 0.0111 0.0128 0.0088 -0.0092
-0.0059 0.0056 -0.0010 0.0081 0.0214 0.0140
0.0182 0.0149 0.0032 0.0100 0.0117 0.0058
0.0100 0.0067 0.0024 0.0119 0.0050 -0.0045
-0.0010 -0.0045 -0.0010 0.0190 0.0086 -0.0116
-0.0037 0.0025 -0.0099 -0.0090 0.0016 -0.0011
-0.0064 0.0016 0.0115 -0.0020 -0.0065 0.0079
0.0043 -0.0038 0.0044 0.0089 -0.0029 0.0007
0.0080 -0.0047 0.0017 0.0053 -0.0075 0.0062
0.0072 -0.0047 -0.0158 -0.0048 0.0146 0.0017
-0.0121 -0.0066 0.0026 -0.0029 0.0082 0.0100
0.0128 0.0147 0.0017 0.0063 0.0073 0.0193
0.0147 0.0008 -0.0011 -0.0057 -0.0094 -0.0020
0.0064 -0.0066 0.0017 0.0017 -0.0131 0.0045
0.0240 0.0036 -0.0131 0.0045 -0.0057 -0.0020
0.0092 -0.0113 -0.0085 -0.0048 -0.0103 -0.0057
-0.0029 0.0017 0.0064 0.0027 0.0073 0.0073
-0.0122 -0.0085 0.0008 0.0073 -0.0057 -0.0214
-0.0057 -0.0242 -0.0214 0.0055 -0.0020 -0.0020
0.0027 0.0064 -0.0001 0.0045 0.0092 0.0129
0.0147 -0.0029 0.0101 0.0175 -0.0057 -0.0057
-0.0010 0.0092 0.0240 0.0240 0.0129 0.0083
0.0185 0.0027 -0.0038 -0.0038 -0.0196 -0.0047
0.0009 -0.0084 0.0120 0.0092 -0.0121 -0.0056
0.0009 0.0120 0.0055 -0.0047 0.0138 0.0009
-0.0075 -0.0075 -0.0028 0.0241 -0.0056 -0.0149
0.0037 -0.0019 0.0037 0.0148 0.0287 0.0092
-0.0038 0.0037 0.0046 -0.0000 0.0009 0.0157
0.0018 -0.0158 0.0083 0.0074 -0.0065 0.0055
-0.0037 0.0046 0.0018 -0.0112 0.0176 0.0083
0.0083 0.0185 -0.0056 -0.0056 0.0083 0.0120
0.0037 -0.0084 -0.0019 0.0083 0.0102 0.0102
0.0046 -0.0037 0.0083 0.0065 -0.0093 -0.0019
-0.0037 0.0009 0.0046 0.0046 0.0093 0.0028
-0.0000 -0.0037 -0.0037 0.0046 -0.0000 0.0037
0.0009 -0.0287 -0.0102 -0.0037 -0.0065 0.0056
-0.0037 0.0074 -0.0018 0.0084 0.0102 -0.0056
0.0074 -0.0130 0.0000 0.0056 -0.0046 0.0019
0.0028 0.0037 -0.0074 0.0056 -0.0028 0.0019
0.0112 0.0019 0.0130 0.0019 0.0065 0.0047
-0.0009 0.0186 0.0102 0.0000 0.0158 -0.0009
-0.0102 0.0037 0.0028 0.0158 0.0038 -0.0074
0.0065 0.0121 0.0019 -0.0027 0.0149 -0.0046
-0.0092 0.0047 0.0019 0.0112 -0.0101 -0.0148
0.0038 0.0056 -0.0018 -0.0037 0.0019 0.0019
0.0140 0.0149 0.0028 0.0038 0.0047 0.0066
0.0038 0.0084 0.0093 -0.0055 -0.0036 -0.0036
-0.0055 -0.0092 -0.0111 -0.0120 -0.0018 -0.0008
-0.0101 0.0066 -0.0018 0.0084 0.0066 -0.0166
0.0038 0.0112 0.0084 0.0140 0.0121 0.0084
0.0140 0.0066 0.0112 0.0131 0.0038 0.0122
0.0001 -0.0110 -0.0018 -0.0045 0.0020 0.0112
-0.0027 -0.0008 0.0066 0.0010 0.0029 0.0029
0.0029 0.0029 0.0085 0.0020 -0.0027 0.0075
0.0020 -0.0110 -0.0027 0.0075 0.0001 -0.0017
-0.0129 0.0001 0.0029 0.0011 0.0177 -0.0008
0.0085 0.0103 0.0048 0.0122 0.0076 0.0150
0.0140 0.0103 0.0038 0.0057 0.0020 0.0029
0.0057 0.0029 0.0094 -0.0091 -0.0073 0.0020
-0.0026 -0.0054 -0.0091 0.0113 0.0020 -0.0147
0.0002 0.0011 0.0122 0.0252 0.0020 0.0067
0.0252 0.0020 -0.0110 -0.0008 0.0048 0.0002
0.0057 0.0150 0.0048 -0.0008 0.0048 0.0057
-0.0008 -0.0054 -0.0026 0.0122 0.0159 0.0039
0.0132 0.0159 0.0187 0.0039 -0.0147 0.0095
0.0215 0.0150 0.0058 0.0058 0.0132 -0.0082
-0.0137 0.0141 0.0113 -0.0035 0.0048 0.0271
0.0234 -0.0044 0.0030 0.0104 0.0076 0.0030
0.0002 0.0169 0.0160 0.0002 0.0104 0.0095
0.0002 0.0123 -0.0007 0.0113 0.0253 0.0160
0.0188 0.0067 0.0123 0.0132 -0.0044 0.0132
0.0113 -0.0091 0.0002 0.0012 0.0030 0.0030
-0.0016 -0.0026 -0.0007 0.0132 0.0058 -0.0137
-0.0007 0.0021 0.0021 0.0049 -0.0109 -0.0063
-0.0137 -0.0007 0.0104 0.0002 0.0114 0.0049
0.0058 0.0012 -0.0062 -0.0035 0.0030 0.0049
0.0067 0.0095 0.0095 0.0188 0.0067 0.0123
0.0067 0.0003 0.0179 0.0003 0.0058 0.0068
0.0012 0.0160 0.0086 0.0244 0.0188 0.0058
0.0123 0.0012 0.0235 0.0188 0.0021 -0.0053
-0.0109 0.0096 -0.0034 -0.0118 0.0198 0.0188
-0.0118 0.0049 0.0114 0.0068 0.0170 0.0021
0.0105 0.0170 0.0253 0.0216 0.0031 0.0021
-0.0006 0.0049 0.0031 0.0226 0.0142 -0.0062
0.0003 -0.0062 0.0086 0.0059 -0.0025 0.0124
0.0068 0.0012 0.0040 0.0003 0.0114 -0.0015
-0.0062 0.0068 -0.0043 0.0096 0.0059 0.0105
0.0161 0.0105 0.0152 0.0012 0.0096 0.0142
0.0077 0.0142 0.0235 0.0022 0.0013 0.0087
0.0096 0.0226 -0.0006 0.0068 0.0124 0.0105
0.0133 -0.0034 0.0068 0.0087 0.0217 0.0300
0.0217 0.0263 0.0096 0.0003 0.0198 0.0133
0.0013 0.0068 -0.0015 0.0078 0.0106 -0.0043
0.0022 -0.0015 -0.0043 0.0124 -0.0015 -0.0108
0.0022 0.0106 0.0096 0.0143 0.0180 0.0096
0.0152 0.0152 0.0217 0.0143 0.0106 0.0208
0.0050 0.0115 0.0171 0.0143 0.0078 0.0180
0.0236 0.0059 0.0217 0.0161 -0.0005 0.0032
-0.0043 0.0069 0.0060 0.0022 0.0162 -0.0005
-0.0015 0.0171 0.0125 0.0143 0.0227 0.0282
0.0208 0.0060 0.0041 0.0050 0.0199 0.0143
0.0060 0.0088 -0.0052 0.0097 0.0050 -0.0033
0.0060 -0.0005 0.0171 0.0153 -0.0042 0.0060
-0.0024 -0.0061 0.0032 0.0125 0.0143 0.0097
0.0171 0.0032 0.0023 0.0218 0.0106 0.0041
0.0116 0.0125 0.0134 0.0227 0.0171 0.0097
0.0153 0.0153 0.0079 0.0014 0.0014 -0.0005
0.0051 0.0023 0.0097 0.0264 0.0144 0.0042
0.0097 0.0042 -0.0005 0.0134 0.0069 -0.0088
0.0171 0.0255 -0.0097 0.0051 0.0255 0.0125
0.0190 0.0070 0.0070 0.0153 0.0051 0.0162
0.0097 -0.0005 0.0116 0.0190 0.0162 0.0125
0.0135 0.0116 0.0060 0.0033 0.0088 0.0144
-0.0004 -0.0004 0.0135 0.0116 0.0107 -0.0004
-0.0014 0.0144 0.0051 0.0014 0.0144 0.0061
-0.0097 0.0014 0.0116 0.0126 0.0209 0.0033
0.0181 0.0302 -0.0032 0.0061 0.0033 0.0070
0.0172 0.0126 0.0135 0.0033 0.0209 0.0237
0.0089 0.0070 0.0033 0.0126 0.0154 0.0135
0.0116 0.0070 0.0154 0.0116 0.0079 0.0070
0.0098 0.0079 -0.0041 0.0024 0.0052 -0.0032
-0.0069 0.0015 0.0061 0.0052 0.0135 -0.0097
0.0052 0.0098 -0.0171 0.0080 0.0117 0.0172
0.0089 -0.0032 0.0098 0.0135 0.0219 0.0117
0.0200 0.0265 0.0107 0.0024 0.0043 0.0126
-0.0059 0.0006 0.0247 0.0145 0.0135 0.0126
0.0015 -0.0022 0.0052 0.0163 0.0126 0.0006
-0.0013 0.0126 0.0182 0.0126 0.0024 0.0061
0.0126 0.0006 0.0006 -0.0059 0.0034 0.0201
-0.0022 -0.0050 0.0163 0.0117 0.0136 0.0247
0.0080 0.0154 0.0099 0.0080 0.0071 -0.0003
0.0080 -0.0050 0.0210 0.0164 0.0080 0.0191
0.0117 0.0154 0.0089 0.0219 0.0191 0.0099
0.0247 0.0256 0.0117 0.0201 0.0219 0.0006
0.0062 0.0117 0.0099 0.0117 0.0043 0.0127
0.0155 0.0006 0.0155 0.0127 0.0006 0.0164
0.0173 0.0043 0.0025 0.0108 0.0155 0.0210
0.0145 0.0136 0.0099 -0.0022 0.0043 0.0043
0.0071 0.0229 0.0155 0.0099 0.0155 0.0108
0.0025 -0.0031 0.0099 0.0016 -0.0021 0.0108
0.0108 0.0099 0.0053 0.0118 -0.0068 -0.0077
0.0071 -0.0096 0.0016 0.0007 -0.0058 0.0016
0.0025 0.0090 0.0192 0.0192 0.0099 0.0155
0.0016 -0.0068 0.0174 0.0136 0.0053 0.0127
-0.0012 -0.0077 0.0137 0.0146 0.0192 0.0183
0.0053 0.0109 0.0035 0.0016 -0.0012 -0.0095
0.0007 0.0081 0.0044 -0.0040 -0.0012 0.0118
0.0100 0.0025 0.0007 0.0137 0.0100 0.0183
0.0369 0.0025 0.0072 0.0230 0.0155 0.0137
0.0090 0.0276 0.0090 0.0081 0.0202 -0.0030
0.0211 0.0063 -0.0076 0.0026 0.0016 0.0258
0.0128 0.0128 0.0007 0.0100 0.0313 -0.0011
0.0174 0.0183 0.0026 0.0109 0.0007 0.0165
0.0239 0.0081 0.0063 0.0230 0.0295 0.0137
0.0072 0.0054 0.0156 0.0248 0.0211 0.0165
0.0119 0.0165 0.0156 0.0258 0.0304 0.0091
0.0119 0.0054 -0.0030 0.0045 -0.0002 0.0212
0.0276 0.0026 0.0054 0.0147 0.0119 0.0045
0.0063 0.0221 0.0304 0.0165 0.0110 0.0202
0.0175 0.0054 0.0035 0.0202 0.0202 0.0165
0.0184 0.0045 -0.0011 -0.0066 -0.0085 -0.0085
-0.0076 0.0036 0.0147 0.0156 0.0119 0.0063
0.0054 0.0091 -0.0029 0.0017 0.0073 0.0026
0.0147 0.0203 0.0128 -0.0029 -0.0113 -0.0020
0.0147 0.0119 -0.0020 0.0017 0.0054 0.0073
0.0156 0.0203 0.0045 -0.0020 -0.0029 -0.0140
0.0064 0.0231 0.0110 0.0101 0.0092 0.0036
0.0054 0.0054 0.0073 0.0110 0.0045 -0.0047
-0.0075 -0.0020 0.0092 0.0092 -0.0112 -0.0057
0.0110 -0.0094 -0.0038 0.0110 -0.0066 -0.0075
0.0073 0.0157 -0.0057 -0.0242 0.0027 -0.0057
-0.0159 0.0008 -0.0001 0.0120 -0.0001 0.0064
0.0148 0.0018 0.0175 0.0138 0.0046 -0.0103
-0.0066 0.0194 0.0083 -0.0047 0.0092 0.0046
0.0101 0.0092 0.0018 0.0148 0.0046 0.0092
-0.0019 -0.0056 0.0176 -0.0019 -0.0140 -0.0084
0.0092 0.0222 0.0009 -0.0038 0.0074 -0.0065
-0.0010 0.0074 -0.0103 0.0092 0.0148 0.0102
0.0083 -0.0065 0.0102 0.0064 0.0009 0.0037
-0.0000 0.0064 0.0055 0.0120 0.0074 -0.0065
-0.0084 0.0065 0.0083 0.0055 0.0120 -0.0102
0.0111 0.0102 -0.0093 0.0194 0.0130 0.0009
-0.0102 0.0037 0.0028 -0.0112 0.0083 0.0065
0.0037 -0.0102 -0.0102 0.0055 0.0018 -0.0037
0.0065 0.0102 0.0083 0.0009 0.0028 0.0139
-0.0028 0.0093 0.0130 -0.0046 -0.0000 0.0083
0.0158 0.0046 0.0102 0.0213 0.0074 0.0074
0.0167 0.0065 0.0000 0.0139 0.0037 -0.0074
0.0000 0.0028 0.0028 -0.0130 0.0037 0.0121
-0.0028 0.0223 0.0037 -0.0111 0.0065 0.0019
0.0047 0.0019 0.0000 0.0000 0.0037 0.0084
0.0047 0.0102 0.0037 0.0084 0.0223 0.0037
0.0019 0.0112 0.0056 0.0093 0.0214 0.0093
0.0028 0.0121 -0.0055 0.0000 0.0130 0.0093
0.0177 0.0028 -0.0046 0.0075 0.0167 0.0186
0.0223 0.0167 0.0028 0.0084 0.0047 -0.0009
0.0130 0.0205 0.0158 -0.0009 -0.0009 0.0038
-0.0101 0.0093 0.0066 0.0010 0.0038 0.0019
0.0242 -0.0036 -0.0064 0.0038 -0.0018 0.0112
-0.0018 0.0001 -0.0018 -0.0018 0.0084 -0.0092
0.0075 0.0205 -0.0083 -0.0018 0.0066 0.0001
0.0029 -0.0027 0.0047 0.0168 0.0075 -0.0027
0.0020 0.0020 0.0094 0.0131 0.0084 0.0094
0.0094 0.0149 0.0038 0.0094 0.0029 -0.0017
0.0242 -0.0064 -0.0064 0.0122 0.0075 0.0057
-0.0017 0.0122 -0.0101 -0.0166 0.0001 -0.0008
-0.0045 -0.0184 0.0001 0.0122 0.0048 -0.0008
0.0020 -0.0027 -0.0064 0.0066 0.0066 -0.0026
0.0038 0.0020 -0.0110 0.0113 0.0001 -0.0064
0.0066 -0.0119 -0.0110 -0.0063 0.0085 0.0048
-0.0073 0.0029 -0.0073 -0.0184 -0.0073 0.0094
0.0104 -0.0008 -0.0045 0.0029 -0.0008 -0.0054
0.0057 -0.0063 0.0039 0.0141 -0.0091 0.0039
-0.0073 -0.0175 0.0002 -0.0054 0.0020 -0.0082
-0.0054 0.0011 -0.0035 0.0048 -0.0026 0.0122
0.0085 0.0067 0.0141 0.0030 0.0206 0.0122
0.0057 0.0160 0.0104 0.0243 0.0234 0.0104
0.0085 -0.0072 0.0020 0.0252 0.0048 0.0030
0.0123 0.0011 0.0104 0.0160 0.0104 -0.0119
-0.0156 0.0039 -0.0063 -0.0063 0.0104 0.0039
-0.0035 -0.0016 -0.0016 0.0039 0.0095 0.0076
0.0039 -0.0016 -0.0016 0.0086 0.0030 0.0030
0.0188 -0.0007 -0.0109 -0.0081 -0.0146 0.0021
0.0058 -0.0026 -0.0081 -0.0026 -0.0035 -0.0090
-0.0109 -0.0025 0.0151 0.0002 -0.0063 -0.0044
0.0012 -0.0035 -0.0127 -0.0100 -0.0211 -0.0192
-0.0155 -0.0035 0.0002 -0.0118 -0.0109 -0.0062
-0.0007 -0.0099 -0.0137 -0.0109 -0.0155 -0.0025
-0.0025 0.0105 0.0179 -0.0099 -0.0192 0.0049
0.0114 -0.0007 0.0170 0.0058 0.0003 0.0123
0.0133 0.0031 -0.0173 -0.0211 0.0012 0.0225
0.0031 0.0086 0.0114 -0.0090 -0.0016 0.0012
-0.0006 -0.0025 -0.0034 0.0031 0.0021 0.0003
0.0077 0.0096 0.0049 -0.0043 -0.0053 -0.0034
-0.0043 -0.0016 -0.0043 -0.0118 -0.0118 -0.0006
0.0003 0.0022 -0.0108 -0.0164 -0.0053 -0.0136
0.0068 0.0059 -0.0090 -0.0062 -0.0015 0.0133
0.0003 -0.0071 0.0068 0.0012 0.0050 0.0198
0.0077 0.0068 0.0133 0.0040 0.0087 0.0077
0.0059 0.0133 0.0059 -0.0080 -0.0080 -0.0052
-0.0015 0.0087 0.0003 -0.0136 -0.0052 -0.0015
-0.0108 -0.0071 -0.0006 -0.0108 -0.0201 -0.0015
0.0050 -0.0006 -0.0006 -0.0006 -0.0061 -0.0071
0.0031 -0.0136 -0.0099 0.0068 -0.0080 -0.0034
0.0031 -0.0061 -0.0061 -0.0024 -0.0006 0.0022
-0.0071 0.0031 0.0013 -0.0154 0.0087 -0.0108
-0.0182 0.0032 -0.0163 -0.0135 -0.0033 0.0069
0.0022 0.0004 -0.0061 -0.0219 -0.0061 -0.0015
-0.0117 -0.0089 0.0152 -0.0061 -0.0117 0.0097
-0.0098 -0.0015 -0.0042 -0.0070 0.0041 0.0087
0.0115 -0.0024 0.0078 0.0060 -0.0117 0.0013
0.0041 -0.0126 -0.0126 -0.0079 0.0050 0.0087
-0.0015 -0.0061 0.0088 0.0208 -0.0024 -0.0033
0.0227 0.0245 0.0171 0.0106 0.0041 0.0097
-0.0005 0.0032 0.0023 -0.0107 0.0004 -0.0163
-0.0024 0.0116 -0.0024 -0.0070 -0.0135 0.0023
-0.0088 -0.0135 0.0051 -0.0051 -0.0042 0.0106
0.0032 0.0023 0.0097 0.0088 0.0088 -0.0033
-0.0051 0.0106 0.0097 0.0088 0.0051 0.0004
0.0144 -0.0033 -0.0060 0.0014 -0.0144 0.0116
0.0042 -0.0023 0.0162 -0.0033 -0.0079 0.0060
0.0060 -0.0088 0.0014 -0.0088 -0.0051 0.0107
-0.0042 0.0051 -0.0023 -0.0060 -0.0088 -0.0069
0.0005 -0.0060 -0.0051 -0.0162 -0.0125 -0.0097
-0.0032 -0.0004 0.0023 0.0218 -0.0014 -0.0079
0.0033 0.0060 -0.0042 -0.0162 0.0079 -0.0004
0.0023 0.0200 0.0116 0.0107 0.0070 -0.0004
-0.0069 0.0042 0.0061 0.0172 0.0209 -0.0023
-0.0078 -0.0078 0.0024 -0.0116 -0.0180 0.0014
-0.0013 -0.0041 0.0144 0.0172 -0.0106 0.0126
0.0126 -0.0153 0.0107 0.0052 0.0024 0.0209
0.0070 -0.0013 0.0079 -0.0032 -0.0106 0.0070
0.0052 0.0052 0.0061 0.0015 0.0126 -0.0013
-0.0273 0.0033 0.0144 -0.0078 0.0042 -0.0022
-0.0087 0.0042 -0.0078 -0.0022 0.0145 0.0043
0.0080 0.0172 0.0061 0.0052 0.0163 0.0070
0.0089 0.0237 0.0089 0.0117 0.0145 0.0006
0.0080 0.0154 0.0089 0.0024 0.0126 0.0163
0.0089 0.0080 0.0080 -0.0041 -0.0041 0.0043
0.0080 0.0117 0.0071 0.0154 0.0080 -0.0031
0.0108 0.0080 -0.0161 -0.0124 0.0117 0.0108
0.0052 -0.0013 -0.0050 -0.0050 0.0024 0.0080
0.0126 0.0136 -0.0059 0.0006 0.0154 0.0052
-0.0050 0.0052 -0.0068 -0.0142 0.0154 0.0080
-0.0003 0.0015 -0.0142 -0.0077 -0.0087 -0.0077
-0.0031 -0.0096 -0.0087 -0.0142 -0.0050 0.0015
-0.0003 0.0145 0.0155 0.0080 0.0071 -0.0040
0.0071 0.0117 -0.0068 0.0118 0.0090 -0.0087
0.0090 -0.0003 -0.0059 0.0053 0.0006 0.0062
0.0099 0.0025 0.0006 -0.0068 -0.0216 -0.0077
0.0043 -0.0142 0.0053 -0.0012 -0.0133 0.0081
-0.0049 0.0025 0.0090 -0.0068 -0.0058 0.0016
-0.0077 -0.0077 0.0071 -0.0012 0.0025 -0.0021
-0.0012 0.0081 -0.0133 -0.0049 0.0109 -0.0086
-0.0160 -0.0040 -0.0105 -0.0151 -0.0077 -0.0105
-0.0012 -0.0077 -0.0207 -0.0160 -0.0114 -0.0207
-0.0234 -0.0067 0.0016 -0.0040 -0.0179 -0.0021
-0.0077 -0.0123 -0.0040 -0.0160 -0.0040 -0.0040
-0.0132 -0.0086 -0.0002 -0.0021 -0.0002 -0.0021
-0.0160 -0.0086 -0.0049 -0.0086 -0.0039 -0.0104
0.0026 -0.0021 -0.0067 0.0118 0.0035 -0.0114
-0.0076 0.0007 -0.0178 -0.0058 0.0026 -0.0049
-0.0021 -0.0206 -0.0151 0.0054 -0.0002 -0.0151
-0.0039 -0.0141 -0.0299 -0.0011 -0.0058 -0.0076
0.0007 -0.0262 -0.0048 0.0119 -0.0113 -0.0095
-0.0169 -0.0141 -0.0076 -0.0160 -0.0039 -0.0141
-0.0039 0.0091 -0.0058 0.0128 -0.0076 -0.0095
0.0035 -0.0122 0.0063 0.0054 0.0054 0.0007
-0.0057 -0.0030 -0.0113 -0.0039 -0.0020 0.0082
0.0147 0.0035 -0.0048 -0.0002 -0.0030 -0.0057
0.0045 0.0008 -0.0029 0.0100 0.0128 -0.0067
-0.0076 0.0063 0.0147 0.0165 0.0073 0.0045
-0.0039 -0.0141 0.0054 0.0138 -0.0131 -0.0094
-0.0150 -0.0187 0.0017 -0.0103 -0.0113 -0.0131
-0.0048 -0.0020 -0.0131 -0.0001 -0.0048 -0.0011
-0.0057 -0.0103 -0.0103 -0.0178 -0.0131 0.0008
0.0129 -0.0140 -0.0233 -0.0140 -0.0122 -0.0187
-0.0215 -0.0131 0.0008 0.0129 -0.0038 -0.0020
-0.0057 -0.0066 -0.0001 -0.0103 -0.0075 -0.0085
-0.0066 -0.0047 -0.0020 -0.0029 -0.0047 0.0036
-0.0057 0.0027 0.0157 -0.0020 -0.0010 0.0073
0.0018 0.0045 0.0101 0.0008 -0.0038 0.0018
0.0027 0.0008 -0.0001 -0.0047 -0.0066 0.0036
-0.0001 -0.0029 0.0083 0.0027 0.0008 0.0064
0.0055 -0.0066 -0.0168 -0.0094 -0.0038 0.0018
-0.0038 -0.0029 -0.0084 -0.0121 0.0046 -0.0093
-0.0010 -0.0029 -0.0056 -0.0038 -0.0316 -0.0075
-0.0084 -0.0232 -0.0038 0.0064 0.0074 -0.0140
-0.0084 0.0027 -0.0010 0.0083 -0.0075 -0.0103
0.0055 -0.0075 -0.0028 -0.0093 -0.0140 0.0037
0.0009 0.0018 0.0037 0.0185 0.0102 -0.0093
-0.0084 -0.0223 -0.0093 -0.0047 -0.0130 -0.0019
-0.0047 -0.0102 -0.0214 -0.0037 0.0157 -0.0037
0.0046 -0.0056 -0.0084 0.0046 -0.0047 0.0139
-0.0000 -0.0130 -0.0028 -0.0121 -0.0009 -0.0000
-0.0009 -0.0000 0.0009 -0.0028 -0.0232 -0.0074
-0.0009 -0.0074 0.0046 0.0111 0.0139 -0.0056
-0.0083 0.0093 -0.0009 -0.0083 -0.0056 0.0056
0.0148 -0.0046 -0.0130 0.0037 0.0028 0.0046
0.0130 -0.0018 -0.0111 0.0019 -0.0018 -0.0158
-0.0018 -0.0046 -0.0055 0.0084 0.0000 0.0056
-0.0139 -0.0139 0.0130 0.0028 0.0000 -0.0028
0.0056 0.0149 0.0093 0.0167 0.0075 0.0065
0.0130 -0.0018 -0.0074 -0.0037 0.0010 -0.0018
-0.0065 -0.0102 -0.0064 0.0028 0.0028 -0.0129
-0.0148 0.0028 -0.0139 -0.0102 0.0001 -0.0027
0.0121 0.0214 0.0158 -0.0009 -0.0009 0.0066
0.0075 0.0001 0.0093 0.0112 0.0001 0.0093
0.0093 0.0075 0.0103 0.0047 0.0168 0.0038
-0.0073 0.0084 -0.0018 -0.0009 0.0029 -0.0027
-0.0008 0.0056 -0.0092 -0.0083 0.0001 -0.0129
0.0121 -0.0092 -0.0194 0.0029 -0.0064 0.0103
0.0057 -0.0166 -0.0185 -0.0073 0.0066 0.0140
0.0010 -0.0157 0.0010 0.0103 -0.0027 -0.0055
0.0103 0.0112 0.0038 0.0149 0.0149 -0.0064
-0.0147 0.0001 0.0112 0.0010 -0.0082 0.0048
-0.0008 0.0029 0.0233 0.0038 -0.0092 0.0020
0.0112 -0.0008 -0.0064 0.0057 -0.0064 0.0029
0.0168 -0.0017 -0.0027 0.0011 0.0076 0.0029
-0.0119 0.0029 0.0038 0.0029 0.0094 -0.0026
0.0048 -0.0026 -0.0045 0.0113 0.0029 -0.0026
-0.0073 -0.0017 -0.0008 -0.0110 -0.0165 -0.0165
-0.0026 0.0029 -0.0017 -0.0082 -0.0119 -0.0110
-0.0091 -0.0128 -0.0100 -0.0091 -0.0017 0.0029
-0.0110 -0.0128 -0.0017 0.0020 -0.0165 -0.0054
-0.0054 -0.0110 -0.0026 -0.0063 0.0169 0.0067
-0.0054 0.0085 0.0020 -0.0082 0.0011 0.0067
-0.0109 -0.0082 -0.0035 -0.0054 -0.0091 0.0058
0.0104 -0.0091 -0.0091 -0.0063 0.0020 -0.0035
-0.0072 0.0021 -0.0100 -0.0054 0.0048 -0.0072
-0.0156 -0.0156 -0.0017 0.0067 -0.0081 -0.0165
-0.0063 0.0030 0.0076 0.0086 -0.0146 -0.0146
0.0086 0.0058 0.0039 0.0160 0.0076 -0.0072
0.0021 -0.0053 -0.0137 -0.0118 -0.0007 0.0160
-0.0007 -0.0053 -0.0016 0.0049 0.0058 -0.0035
-0.0090 -0.0063 -0.0044 -0.0239 -0.0127 -0.0016
-0.0118 -0.0007 -0.0081 -0.0044 0.0067 -0.0053
-0.0044 -0.0081 -0.0090 0.0021 0.0095 -0.0044
-0.0118 0.0077 -0.0035 -0.0062 -0.0109 -0.0118
0.0012 -0.0109 -0.0062 -0.0109 -0.0034 -0.0090
-0.0164 0.0058 -0.0016 -0.0062 -0.0081 -0.0211
-0.0146 0.0123 -0.0034 -0.0090 0.0179 0.0058
-0.0099 -0.0081 -0.0090 0.0123 0.0160 0.0077
0.0151 -0.0201 -0.0053 0.0021 -0.0155 0.0021
-0.0118 -0.0043 -0.0108 -0.0099 0.0031 -0.0266
-0.0192 -0.0062 -0.0081 -0.0071 -0.0201 -0.0275
-0.0136 0.0105 -0.0053 -0.0210 -0.0080 -0.0090
-0.0071 -0.0127 -0.0182 -0.0025 -0.0043 -0.0173
-0.0117 -0.0071 0.0059 -0.0099 -0.0238 0.0031
-0.0052 -0.0080 -0.0164 -0.0154 -0.0080 -0.0219
-0.0015 -0.0080 -0.0127 -0.0071 -0.0173 -0.0062
0.0022 0.0003 -0.0191 -0.0247 -0.0080 -0.0117
-0.0182 -0.0256 -0.0154 -0.0080 -0.0191 -0.0145
-0.0303 -0.0117 0.0124 -0.0108 -0.0201 -0.0080
0.0115 0.0059 -0.0154 -0.0126 -0.0052 -0.0173
-0.0210 -0.0080 -0.0015 -0.0098 -0.0071 -0.0006
-0.0145 -0.0117 -0.0033 -0.0108 -0.0182 -0.0210
-0.0163 -0.0126 -0.0033 -0.0108 -0.0256 -0.0126
-0.0135 -0.0098 0.0087 -0.0098 -0.0145 -0.0135
-0.0182 -0.0098 -0.0070 -0.0107 -0.0200 -0.0107
-0.0080 -0.0052 -0.0126 -0.0228 -0.0015 -0.0080
0.0032 0.0050 -0.0209 -0.0237 -0.0246 -0.0107
-0.0079 -0.0089 -0.0061 -0.0061 -0.0061 -0.0237
-0.0117 0.0115 -0.0042 -0.0079 -0.0014 -0.0107
-0.0014 0.0088 -0.0024 0.0004 -0.0052 -0.0191
-0.0061 -0.0079 -0.0079 0.0060 -0.0107 -0.0079
0.0023 -0.0061 0.0032 -0.0116 -0.0061 0.0069
-0.0209 -0.0274 -0.0153 -0.0116 -0.0061 -0.0014
-0.0088 -0.0163 -0.0153 -0.0098 -0.0014 -0.0098
-0.0163 0.0014 0.0079 -0.0107 -0.0107 0.0144
0.0004 -0.0116 -0.0023 -0.0060 -0.0088 -0.0079
-0.0005 -0.0005 0.0162 0.0153 -0.0051 0.0107
0.0060 -0.0033 -0.0023 -0.0218 -0.0209 -0.0051
-0.0023 -0.0023 -0.0023 0.0060 -0.0042 -0.0236
-0.0023 -0.0014 -0.0171 -0.0014 -0.0051 -0.0255
-0.0209 0.0005 -0.0162 -0.0283 -0.0004 -0.0069
-0.0255 -0.0004 -0.0079 -0.0134 0.0061 -0.0032
0.0070 0.0023 -0.0051 0.0042 0.0005 -0.0116
-0.0060 0.0116 0.0014 0.0033 0.0079 -0.0060
-0.0051 -0.0023 -0.0004 -0.0088 -0.0153 0.0014
-0.0013 0.0079 0.0135 -0.0023 0.0014 -0.0051
-0.0023 -0.0032 -0.0060 0.0070 0.0098 0.0042
-0.0078 -0.0078 -0.0023 -0.0050 -0.0023 -0.0078
-0.0023 0.0042 -0.0013 0.0070 0.0098 0.0080
0.0070 0.0024 -0.0050 -0.0124 -0.0152 -0.0134
-0.0069 -0.0004 -0.0022 -0.0041 -0.0022 -0.0143
-0.0059 0.0052 -0.0143 0.0033 0.0043 -0.0226
-0.0180 -0.0041 0.0061 -0.0004 -0.0041 -0.0069
-0.0050 0.0173 0.0210 -0.0022 -0.0041 -0.0022
-0.0096 -0.0041 -0.0004 0.0043 -0.0087 0.0006
0.0145 -0.0013 -0.0059 0.0006 -0.0022 0.0015
0.0293 0.0024 -0.0087 0.0117 -0.0059 0.0034
0.0099 -0.0087 -0.0013 0.0052 -0.0152 0.0024
0.0173 -0.0170 -0.0096 0.0182 0.0043 -0.0040
0.0117 0.0043 0.0015 0.0025 -0.0059 -0.0003
0.0034 -0.0003 0.0006 0.0034 0.0062 0.0136
0.0043 -0.0087 -0.0059 -0.0077 -0.0170 -0.0068
0.0034 -0.0077 -0.0022 0.0025 0.0025 -0.0114
-0.0003 0.0164 -0.0087 0.0034 0.0062 -0.0003
0.0043 -0.0096 -0.0049 0.0043 -0.0012 0.0016
0.0043 -0.0022 -0.0012 -0.0012 -0.0021 -0.0012
-0.0040 -0.0031 -0.0123 -0.0068 0.0136 0.0146
-0.0031 -0.0123 -0.0040 0.0006 0.0118 -0.0040
-0.0049 0.0211 0.0053 0.0025 0.0016 -0.0105
0.0034 0.0118 0.0007 -0.0040 -0.0031 -0.0021
-0.0021 -0.0160 -0.0068 -0.0040 -0.0272 -0.0123
-0.0123 -0.0244 -0.0077 -0.0012 -0.0003 -0.0123
-0.0132 -0.0067 -0.0095 0.0016 -0.0003 0.0044
0.0025 -0.0058 0.0164 -0.0040 -0.0132 0.0035
-0.0030 -0.0067 -0.0077 -0.0030 -0.0039 0.0007
0.0072 0.0053 0.0230 0.0294 -0.0002 -0.0086
0.0016 0.0109 0.0090 0.0026 0.0183 0.0109
0.0155 0.0118 0.0053 0.0174 -0.0011 0.0072
-0.0021 -0.0086 0.0100 -0.0076 -0.0123 0.0007
0.0118 0.0016 -0.0021 0.0026 -0.0030 0.0026
-0.0048 -0.0021 -0.0011 -0.0021 0.0165 0.0109
0.0026 0.0054 0.0091 0.0100 0.0063 0.0035
0.0017 0.0035 0.0100 0.0026 0.0035 -0.0011
-0.0234 0.0035 0.0147 0.0045 -0.0030 -0.0095
0.0063 -0.0132 -0.0095 -0.0011 -0.0104 0.0063
0.0035 0.0035 -0.0020 0.0008 0.0035 0.0054
0.0082 -0.0104 -0.0076 -0.0067 -0.0002 -0.0067
-0.0104 0.0073 -0.0002 0.0082 0.0100 0.0054
-0.0066 -0.0076 0.0045 -0.0020 0.0128 -0.0076
-0.0113 0.0045 -0.0159 -0.0029 -0.0039 -0.0057
-0.0011 -0.0048 0.0138 0.0166 0.0101 0.0101
-0.0020 -0.0011 0.0091 -0.0020 -0.0057 0.0026
0.0017 0.0036 0.0091 -0.0057 0.0017 -0.0001
-0.0159 -0.0011 -0.0057 -0.0038 -0.0066 -0.0103
-0.0075 -0.0001 0.0138 0.0017 0.0036 0.0101
0.0008 -0.0103 -0.0001 0.0092 -0.0066 -0.0029
-0.0112 -0.0112 0.0008 -0.0149 -0.0047 -0.0112
-0.0084 0.0018 -0.0066 -0.0001 -0.0168 -0.0038
-0.0001 -0.0186 -0.0103 -0.0261 -0.0177 -0.0112
-0.0168 0.0027 0.0101 0.0036 -0.0010 0.0092
-0.0112 -0.0298 -0.0149 -0.0019 0.0027 -0.0140
-0.0158 0.0092 0.0046 -0.0103 -0.0001 0.0046
-0.0019 -0.0131 0.0046 0.0055 -0.0019 -0.0121
-0.0232 0.0046 -0.0047 -0.0093 -0.0140 -0.0001
0.0148 -0.0130 -0.0038 0.0018 0.0018 -0.0010
-0.0084 -0.0121 -0.0084 -0.0010 -0.0102 -0.0140
-0.0084 -0.0158 -0.0269 -0.0084 -0.0056 -0.0167
-0.0102 -0.0149 -0.0130 -0.0084 -0.0214 -0.0195
-0.0028 0.0074 0.0037 -0.0093 0.0018 0.0018
-0.0056 0.0018 -0.0010 -0.0065 -0.0130 -0.0028
-0.0065 -0.0121 -0.0019 -0.0111 -0.0149 -0.0102
0.0018 0.0056 -0.0028 -0.0102 -0.0065 -0.0000
0.0046 0.0111 -0.0093 -0.0037 0.0028 -0.0195
0.0083 0.0139 -0.0083 0.0083 0.0232 0.0019
-0.0176 -0.0009 -0.0056 -0.0204 -0.0176 -0.0093
0.0065 0.0121 0.0139 0.0065 0.0019 0.0000
0.0037 0.0102 -0.0065 0.0000 0.0009 -0.0139
-0.0055 -0.0120 -0.0065 0.0037 0.0102 0.0167
0.0130 0.0084 0.0112 0.0223 0.0093 -0.0111
-0.0185 -0.0185 -0.0018 0.0028 -0.0092 0.0065
0.0019 -0.0213 -0.0055 -0.0009 -0.0083 -0.0064
-0.0055 -0.0037 -0.0064 -0.0129 -0.0074 -0.0027
0.0056 0.0075 -0.0213 -0.0250 -0.0074 -0.0027
-0.0222 -0.0259 -0.0009 -0.0064 -0.0231 -0.0101
-0.0074 -0.0064 -0.0111 -0.0138 0.0112 -0.0111
-0.0129 -0.0120 -0.0277 -0.0157 -0.0148 -0.0064
-0.0027 -0.0073 -0.0120 -0.0110 -0.0231 -0.0036
-0.0027 -0.0110 0.0038 -0.0231 -0.0296 -0.0277
-0.0120 -0.0175 -0.0147 0.0001 -0.0175 -0.0018
-0.0083 -0.0036 0.0029 -0.0110 0.0020 0.0057
-0.0055 -0.0194 0.0047 0.0001 -0.0203 0.0020
0.0010 -0.0045 -0.0073 0.0112 0.0103 -0.0082
0.0103 0.0001 -0.0175 -0.0119 0.0020 0.0122
0.0020 0.0038 -0.0036 -0.0119 0.0048 0.0177
0.0140 0.0057 0.0038 -0.0036 0.0178 0.0261
-0.0017 -0.0073 -0.0175 -0.0119 0.0085 -0.0017
0.0020 -0.0036 0.0001 0.0103 -0.0175 0.0168
0.0168 -0.0063 0.0150 -0.0101 0.0039 -0.0110
-0.0110 0.0113 -0.0091 -0.0054 -0.0212 -0.0073
-0.0054 -0.0091 0.0057 0.0011 0.0039 -0.0240
-0.0137 0.0067 0.0011 0.0002 -0.0137 0.0020
-0.0026 -0.0017 0.0002 -0.0239 0.0030 0.0178
-0.0035 -0.0110 -0.0119 -0.0119 -0.0054 -0.0082
-0.0147 -0.0054 0.0039 -0.0026 -0.0128 -0.0109
-0.0100 0.0048 0.0048 -0.0091 -0.0072 0.0048
0.0076 -0.0100 -0.0109 -0.0119 -0.0165 -0.0072
-0.0128 -0.0119 0.0030 -0.0081 -0.0146 -0.0156
-0.0202 -0.0109 -0.0174 -0.0081 0.0002 -0.0128
-0.0091 -0.0202 -0.0146 -0.0007 -0.0109 -0.0035
-0.0100 -0.0100 -0.0016 -0.0165 -0.0035 -0.0072
-0.0193 -0.0035 -0.0053 -0.0072 -0.0118 0.0021
0.0123 -0.0285 -0.0313 -0.0100 -0.0016 -0.0090
-0.0211 0.0049 -0.0016 -0.0035 0.0132 -0.0090
-0.0053 -0.0044 -0.0118 -0.0072 -0.0100 0.0058
0.0030 -0.0118 -0.0081 -0.0016 0.0012 -0.0025
-0.0090 -0.0062 -0.0146 -0.0127 0.0012 -0.0137
-0.0007 0.0030 -0.0192 -0.0044 -0.0072 -0.0081
0.0179 0.0021 0.0012 0.0049 -0.0238 -0.0053
0.0040 -0.0201 -0.0127 0.0031 -0.0081 -0.0016
0.0049 -0.0071 0.0058 -0.0062 -0.0025 0.0003
-0.0108 0.0086 0.0059 -0.0025 -0.0062 0.0021
-0.0043 -0.0164 0.0021 -0.0062 -0.0173 0.0031
0.0049 0.0012 0.0077 -0.0034 -0.0016 -0.0016
-0.0071 -0.0118 -0.0155 0.0049 -0.0062 -0.0071
0.0096 -0.0127 -0.0136 -0.0090 -0.0080 -0.0090
-0.0090 0.0040 -0.0117 -0.0275 -0.0423 -0.0637
-0.0813 -0.0998 -0.0971 -0.1026 -0.1045 -0.0813
-0.0488 -0.0136 0.0087 0.0263 0.0337 0.0504
0.0699 0.0523 0.0393 0.0161 -0.0266 -0.0841
-0.1703 -0.2426 -0.2862 -0.3140 -0.2918 -0.1953
-0.0701 0.1024 0.2470 0.3240 0.3583 0.2795
0.1524 -0.0432 -0.2167 -0.3038 -0.3224 -0.2408
-0.1415 -0.0228 0.0579 0.0875 0.0143 -0.1221
-0.1898 -0.2380 -0.1879 -0.0822 0.0634 0.2369
0.3203 0.2749 0.0208 -0.3149 -0.6238 -0.8436
-0.8936 -0.7490 -0.4012 0.0412 0.5234 0.8870
0.9955 0.8619 0.4919 0.0143 -0.3557 -0.4874
-0.3808 -0.0117 0.5986 1.2394 1.7170 1.9257
1.7986 1.3424 0.6347 -0.1387 -0.7638 -1.1338
-1.1969 -1.0049 -0.6228 -0.1044 0.3760 0.7284
0.9297 0.9816 0.9714 0.9074 0.8017 0.6960
0.5569 0.3500 0.0932 -0.2231 -0.6423 -1.0605
-1.2896 -1.2655 -1.0457 -0.7480 -0.4058 0.0913
0.6570 1.1319 1.4249 1.4221 1.2181 0.9371
0.6858 0.5291 0.3362 0.0496 -0.2963 -0.6302
-0.8416 -0.9613 -1.0540 -1.0763 -0.8917 -0.5078
-0.0543 0.4567 0.9650 1.3545 1.4750 1.3294
0.9269 0.2657 -0.4364 -1.1050 -1.5938 -1.7106
-1.5316 -1.1356 -0.6246 -0.2175 -0.1210 -0.3371
-0.8082 -1.4537 -1.7384 -1.2590 -0.4744 0.1043
0.4985 0.8852 1.2441 1.5122 1.6021 1.0002
-0.4336 -2.0259 -3.2826 -4.0161 -4.1348 -3.7880
-3.1601 -2.2809 -1.2098 -0.1349 0.8843 1.7653
2.5332 3.4050 4.2434 4.8202 5.0706 4.8963
4.2221 3.1852 2.0519 0.7851 -0.6552 -1.8766
-2.5962 -2.9069 -2.9589 -2.7428 -2.1724 -1.5149
-1.0595 -0.6283 -0.1785 0.0524 0.1869 0.4512
0.6247 0.6191 0.5356 0.1591 -0.3909 -0.6876
-0.8073 -0.9501 -0.9844 -0.9250 -0.9074 -0.8583
-0.7970 -0.8991 -1.4026 -2.2661 -3.0442 -3.5542
-3.8983 -3.8241 -2.9978 -1.5473 0.2259 1.9008
2.9312 3.2799 3.5191 3.8623 4.0691 3.8122
2.9163 1.7969 0.7916 0.0849 -0.2341 -0.4585
-0.6969 -0.7442 -0.6255 -0.4363 -0.0365 0.5162
1.0606 1.4900 1.8860 2.2542 2.2236 1.5864
0.4912 -0.7525 -2.0277 -3.0617 -3.2982 -2.6342
-1.3896 0.1536 1.5874 2.1624 1.8721 1.7460
2.1726 2.5723 2.6214 2.3367 1.4529 0.1128
-0.8109 -1.1438 -1.1105 -0.6755 -0.3175 -0.4158
-0.8100 -1.2375 -1.3627 -1.2162 -1.0836 -0.7877
-0.3138 -0.1469 -0.1561 -0.0940 -0.2081 -0.2081
0.0831 0.1332 -0.0708 -0.2507 -0.7552 -1.6233
-2.2975 -2.6527 -2.6156 -2.0360 -1.3247 -1.0205
-0.8025 -0.0884 1.0310 2.6410 4.6330 6.0640
6.4341 5.8665 4.4921 2.6539 0.6572 -1.6363
-4.0178 -5.8569 -6.8863 -6.9475 -5.9951 -4.2803
-2.1834 -0.0773 1.5772 2.2839 2.1244 1.4520
0.6025 -0.0893 -0.6467 -0.9119 -0.6523 -0.1106
0.4347 0.6916 0.5710 0.3800 0.1731 -0.0977
-0.1616 0.0062 0.1249 0.3494 0.9346 1.8703
2.9517 3.5461 3.2447 2.2839 0.9911 -0.3749
-1.4415 -2.2576 -2.9550 -2.7222 -1.0733 1.0570
3.0231 4.9771 6.3154 6.5333 5.9871 4.8176
2.7412 -0.0271 -2.3828 -3.8750 -4.6985 -4.4778
-3.2211 -1.9858 -1.3450 -0.9583 -0.6513 -0.5372
-0.9212 -1.7048 -2.4254 -2.9856 -3.2833 -3.2267
-2.9856 -2.5339 -1.7632 -1.0093 -0.7997 -1.1094
-1.4470 -1.5574 -1.5045 -1.1929 -0.3517 0.8827
2.1885 3.5508 4.8269 5.7173 6.1810 5.9964
5.0161 3.8253 2.7848 1.7767 0.9699 0.5646
0.3318 0.2205 0.1806 -0.3165 -1.0816 -1.6167
-1.9255 -1.5954 -0.5446 0.3856 1.1470 2.2933
3.4284 4.1360 4.4894 4.0173 2.5511 0.7352
-1.6092 -4.7309 -7.5224 -9.3299 -10.0895 -9.1843
-6.7870 -3.8508 -0.7180 2.6494 5.5327 6.7838
6.2162 4.5729 2.6578 0.4821 -2.3465 -5.5693
-8.4609 -10.1739 -10.2314 -8.7957 -6.2852 -3.0773
-0.0345 1.9613 3.4294 4.8168 5.3686 4.8780
4.1750 3.7160 3.3598 3.3200 3.3079 2.1913
-0.0920 -2.4606 -4.2217 -5.0898 -4.7791 -3.3184
-1.3579 0.2503 1.7137 3.9562 6.4824 7.7641
7.2457 5.5421 3.3358 0.8280 -1.4988 -3.0318
-3.3583 -2.5292 -1.3699 -0.4342 0.4302 1.4939
2.6495 3.6724 4.0545 3.4164 2.2192 0.7242
-0.7921 -1.9226 -3.2998 -5.5451 -7.6642 -8.1994
-7.0596 -5.3550 -4.0752 -2.8575 -0.8839 1.5236
3.5695 4.9467 5.6793 5.2027 3.6029 2.3435
1.4513 0.4933 0.3690 0.6370 -0.5102 -2.9576
-5.1296 -6.5050 -7.1764 -6.8073 -5.3151 -3.6866
-2.3344 -0.3497 2.1190 4.2252 6.3425 8.4505
8.9698 7.0872 3.6307 -0.2635 -3.5205 -5.6601
-7.1180 -7.8469 -7.3739 -6.1785 -4.8690 -3.3184
-1.9986 -1.3476 -0.0418 2.5494 5.0330 6.2766
6.2711 5.7044 4.8596 3.4147 1.9475 0.9366
-0.6557 -2.9205 -3.9471 -2.6265 0.0676 2.5540
4.0453 4.1390 2.4233 0.3014 -0.0084 0.4451
-0.4424 -1.4923 -0.9979 0.8671 3.3340 5.4262
6.6847 6.9815 6.1440 4.8234 3.5575 1.9605
-0.6260 -3.7078 -4.8374 -3.5158 -2.7507 -3.0456
-1.6879 1.2251 3.1309 3.7541 4.5860 5.3984
5.0655 4.4042 4.5248 4.5953 4.0082 3.6623
3.9443 3.8561 2.7841 1.3957 -0.0955 -2.8889
-7.1420 -10.9694 -13.5012 -14.7319 -14.1532 -11.6334
-6.9723 -0.5500 6.1877 11.3135 13.0783 11.7104
9.1118 6.8461 5.2686 3.9619 2.2527 0.0900
-1.2928 -0.2448 3.0614 5.8585 6.6124 6.2600
5.2250 3.7811 3.0401 2.8314 2.3519 2.3575
3.1078 3.5307 3.0985 2.1219 1.0767 0.0130
-1.3197 -2.4020 -2.4029 -2.0486 -2.1766 -1.7565
-0.1168 1.5952 2.6969 3.3294 2.5189 0.2124
-2.2712 -5.7972 -11.0909 -15.4580 -16.2129 -13.9974
-10.7273 -6.8424 -2.8555 -0.1929 0.9590 1.6898
2.6663 2.8184 0.8950 -2.3398 -6.2498 -10.5734
-13.3120 -13.1358 -11.9190 -11.7057 -11.2624 -8.5312
-4.3671 -0.9218 2.0265 5.3494 7.5585 7.4880
6.4029 5.2780 4.2226 4.0733 4.8263 5.3911
5.0526 3.5419 1.3198 -1.1462 -3.5232 -4.2651
-2.6226 -0.9468 -0.7641 -0.6111 0.5398 2.7934
6.2703 9.7741 10.5726 7.3897 2.1211 -2.9157
-6.5595 -8.3271 -9.3501 -11.1743 -12.5264 -11.3996
-8.5979 -6.2126 -4.9847 -4.2270 -2.5549 1.3300
5.6935 7.1170 6.3121 6.4734 7.4908 7.3897
6.5013 5.2604 1.8132 -3.0715 -5.7786 -7.1196
-9.8490 -12.8204 -14.1169 -13.6152 -11.1631 -6.7839
-2.0467 1.1891 2.4596 3.5595 6.3538 10.2480
12.6537 10.9760 6.3074 2.1833 -0.0110 -1.2352
-2.4297 -4.4885 -7.5954 -7.9506 -3.1772 2.1406
4.7513 7.0104 9.5701 10.4947 10.1590 9.1157
5.8150 0.5779 -3.4702 -4.1213 -1.4271 1.4200
0.6753 -1.9029 -2.6912 -2.1765 -1.7610 -1.5644
-1.9669 -2.5836 -2.6930 -1.3520 2.5440 5.1677
3.1237 0.5130 -0.4385 -2.3147 -4.6684 -5.0431
-3.9636 -2.6634 -0.4886 2.9057 7.3814 12.8272
17.1767 19.1326 19.0714 15.0224 7.2739 -0.2001
-6.8812 -12.8519 -15.1203 -14.4173 -14.9905 -15.3012
-10.4397 -1.9196 5.8336 11.7560 15.1198 15.1754
14.0338 13.7620 12.9737 8.8523 -0.0490 -10.6446
-17.8728 -21.6400 -23.3761 -21.9785 -18.3820 -15.0813
-10.3339 -1.8018 7.1561 12.7595 14.2424 11.6244
7.3917 4.2264 2.0043 0.9879 1.7085 1.8578
-0.3012 -2.6142 -2.9350 -0.9272 2.1871 3.7451
3.6793 3.7961 2.7231 -1.9325 -8.9984 -15.0720
-17.5065 -14.9357 -8.4429 -1.6107 3.7739 9.3819
15.6327 20.7269 23.8004 23.8449 19.6530 12.5602
4.7755 -3.4367 -11.9272 -19.5013 -24.4574 -25.4813
-22.8205 -17.3275 -11.5173 -7.9412 -5.3370 -0.9596
6.2640 14.3677 19.6298 20.5693 18.1831 12.5982
4.9155 -0.8984 -4.5978 -9.3350 -13.4203 -13.8766
-12.9603 -12.9269 -12.6580 -12.0941 -12.2796 -11.7667
-9.4510 -7.1195 -5.1255 -2.4323 0.7181 3.9650
7.3009 11.0068 15.5353 20.6268 23.6363 23.0427
21.1295 17.5311 10.8046 4.0623 -0.2714 -3.3644
-6.1939 -7.6388 -6.3135 -3.3273 -0.2223 3.2444
6.5784 9.4293 13.3847 16.8365 15.1783 9.2596
3.0839 -2.9461 -8.4929 -12.0987 -14.7483 -17.9321
-20.7357 -20.7950 -16.8285 -10.3004 -3.8271 1.8867
5.4433 5.5546 6.0442 8.4611 9.4822 9.2716
9.3143 8.8627 8.2255 7.0329 3.4382 -1.5559
-5.4343 -8.3825 -11.1054 -11.8195 -10.2494 -7.8845
-4.7870 -1.6152 1.0233 3.4114 4.8989 4.8896
3.3168 1.0594 -0.1313 -0.5468 -1.5800 -2.7327
-2.6233 -1.6208 -0.3715 1.8626 4.5512 7.0941
9.6705 11.1460 10.6340 9.0500 7.7275 5.8560
1.8051 -3.4904 -7.6341 -10.5740 -13.8783 -16.6198
-16.7088 -13.7401 -9.7736 -6.9329 -4.4410 -1.5169
1.1439 3.1823 4.2145 3.7341 3.2899 3.8130
3.0720 1.2923 1.0558 2.4098 4.2702 5.3886
4.3685 1.9034 -0.3780 -2.1252 -2.3803 0.2378
4.5586 7.3575 6.9977 5.3469 4.2016 2.6315
-0.0617 -2.5027 -4.2323 -6.1604 -7.1564 -5.3999
-1.3703 3.6729 8.6392 11.0069 9.7373 7.4772
6.2725 5.7448 4.9342 3.6062 1.5566 -0.5449
-1.2757 -1.8841 -3.6026 -5.9378 -8.8063 -11.3641
-12.4417 -11.1943 -7.5255 -3.4523 -0.8686 0.1154
0.0913 -0.6534 -3.0990 -7.0525 -9.5046 -9.1744
-7.9475 -6.2485 -3.3336 -0.4048 1.5928 2.8661
4.0634 6.7056 10.6313 12.8534 11.9390 9.7234
7.9465 6.3430 3.9948 1.4667 -0.1702 -0.1043
1.4528 2.8216 3.4430 3.3410 2.9821 3.7926
5.3460 5.2097 2.2986 -2.0074 -5.7282 -7.7156
-9.3617 -12.3081 -14.8891 -15.4910 -14.3187 -11.2499
-6.8883 -3.9271 -3.7685 -5.0066 -6.8345 -8.5938
-8.4714 -6.9384 -5.7328 -3.9994 -1.0790 1.1171
1.2033 0.0042 -0.9900 -0.9918 -1.5066 -3.7518
-5.7745 -7.0794 -8.0392 -6.4858 -2.3431 2.0130
6.0991 10.1111 13.8041 17.4757 21.0740 23.1885
22.4216 19.9194 17.6602 15.3862 12.4185 9.2301
6.6231 4.5680 2.3302 0.6673 0.2713 -0.0412
-0.8573 -1.4110 -1.4500 -1.5325 -1.3618 -0.1942
1.4825 2.6798 3.2678 3.7111 3.7779 2.8440
1.2776 -0.7859 -3.7620 -7.0663 -9.2838 -8.8757
-6.1046 -2.6092 1.3026 5.0827 7.3707 9.1170
11.4652 12.4900 11.0228 8.0199 4.2462 0.5876
-2.5396 -6.1844 -11.2452 -17.3188 -22.9955 -25.4494
-23.5622 -19.3211 -13.3069 -5.7002 1.0597 6.3737
11.5728 15.3566 16.4927 15.7591 12.9648 8.8202
5.6791 3.7612 1.8146 -0.0245 -1.5732 -3.2769
-4.6810 -5.0501 -4.3063 -2.8698 -0.9751 1.8684
5.7802 9.2237 10.5805 10.4080 10.3570 11.1582
12.2776 12.4696 10.7344 7.2390 3.4895 0.6479
-1.6029 -3.3687 -4.7496 -6.0202 -6.7899 -7.7238
-9.1919 -10.1249 -10.1119 -9.2893 -7.8184 -6.5191
-6.2603 -6.4746 -5.9951 -4.7320 -2.4524 1.5123
5.7978 8.3491 10.0305 11.7871 11.9262 10.0500
7.0758 2.7893 -1.8755 -5.4897 -9.0296 -12.6289
-14.0589 -13.2159 -11.3286 -8.7764 -6.7852 -5.8198
-4.4713 -2.2808 0.2974 3.5786 7.4756 10.9357
13.1773 14.4552 15.2408 15.0729 13.5668 11.2362
9.3220 8.4141 7.3272 5.0708 1.4604 -2.9059
-6.3197 -7.9973 -8.6873 -8.8209 -8.0196 -6.7296
-6.5330 -8.6697 -12.1957 -14.6404 -15.4639 -14.8221
-11.9704 -8.0112 -4.9406 -2.9689 -1.6112 -0.7747
-0.0411 0.2965 -0.4167 -0.8961 -0.2915 0.1639
0.3512 1.8110 4.4495 6.5185 7.6824 9.2553
11.0916 11.0832 9.1422 7.0991 5.9528 6.1550
8.1127 10.9219 12.2416 10.9784 8.3186 5.5364
2.3841 -0.4788 -1.5546 -1.3932 -1.7632 -3.4391
-5.5434 -7.2850 -8.2727 -7.8916 -5.9839 -3.8694
-3.7154 -4.8051 -4.4258 -2.2798 -0.5214 -0.9638
-3.8082 -8.6854 -14.0440 -17.5218 -18.3889 -17.3836
-14.6960 -9.3884 -1.4692 7.3810 14.6677 18.0472
16.6366 11.0768 3.3134 -3.9389 -8.7142 -10.9307
-11.6271 -10.7378 -7.0309 -0.9805 5.0375 10.1939
14.1827 14.9932 12.6877 9.9379 7.7492 5.4242
3.3376 3.4600 6.5724 10.6298 12.9140 12.5477
10.6372 7.5016 3.0825 -0.3795 -1.8782 -3.2508
-3.8610 -0.9294 4.4393 8.8315 11.2521 11.6342
10.1735 8.6563 7.7827 5.1052 -0.3452 -5.9764
-10.0190 -12.2930 -12.9477 -12.7984 -12.5721 -11.9953
-10.4873 -8.0074 -4.3933 0.2827 4.6796 7.4896
8.3233 7.0686 4.4774 1.1786 -2.4884 -4.6391
-4.5176 -3.8248 -3.4659 -2.9577 -2.9233 -3.4028
-3.1042 -2.6006 -1.3180 2.4992 7.3014 10.4119
10.9962 9.8601 8.7388 8.8909 9.3955 8.7834
6.9091 3.3302 -1.8512 -6.4308 -8.9914 -10.2545
-10.4928 -9.6804 -8.4748 -6.7953 -4.3877 -1.9941
-0.5872 -0.1290 0.2095 1.1684 3.6576 7.0232
8.6637 8.1796 7.4368 6.8414 5.3696 3.1151
1.2528 -0.5148 -3.0272 -5.2854 -6.6756 -8.1474
-9.5700 -10.9092 -12.7919 -13.8927 -12.6574 -8.7131
-3.1422 1.5107 4.5841 7.3051 9.3130 9.4261
7.9868 5.5820 2.2136 -1.1315 -3.2915 -4.3626
-4.1910 -3.4222 -4.1716 -5.8817 -6.3213 -5.8168
-6.6746 -10.1877 -14.0772 -15.1502 -13.5848 -11.0539
-7.6772 -3.6485 -0.7912 0.1863 1.1073 3.4007
5.5292 5.5765 4.1000 2.1283 -0.1503 -2.4781
-4.0315 -4.5574 -5.2028 -5.8492 -4.6278 -1.9736
0.2615 2.7200 6.3054 9.9093 12.6053 13.9853
13.3584 11.9673 11.9200 12.0619 10.5826 8.9356
7.9961 5.8575 3.0103 1.5821 1.0368 0.1066
-1.4774 -2.8908 -3.5687 -3.8553 -3.8367 -3.7236
-3.7022 -3.7282 -3.3610 -2.0069 0.2652 2.7479
4.4877 5.1555 4.5118 2.9519 1.9893 1.3967
-0.8226 -4.0686 -4.8810 -2.9176 -0.9497 -0.2115
-0.1289 -0.4322 -2.1062 -4.2958 -4.9598 -5.4439
-7.7318 -9.8825 -9.5950 -8.0267 -6.4205 -3.9897
-1.1685 0.2217 0.5639 1.3429 2.7386 3.6457
3.2441 2.7053 2.3445 1.3364 1.2362 3.4741
5.3660 5.2881 5.5552 5.8854 3.9805 0.0853
-3.7755 -6.6857 -9.4837 -12.1954 -14.0818 -14.5102
-13.0477 -10.8312 -9.2398 -7.8635 -6.3601 -4.9792
-3.6753 -3.2283 -4.5220 -6.6727 -8.6620 -10.6745
-11.7725 -10.8868 -9.3714 -8.3439 -7.2338 -5.6516
-3.1318 0.4378 3.8442 5.9151 6.4316 5.8437
5.0841 4.8903 4.8022 4.7549 5.2371 6.3695
8.1594 9.4086 9.3103 8.7131 7.9452 6.4446
3.9082 0.9581 -1.0683 -1.9132 -2.4752 -2.9064
-3.3154 -4.7223 -6.8201 -7.7151 -6.7172 -4.4960
-1.8585 0.0214 0.7606 1.9393 4.6993 7.6948
8.9245 7.9999 5.2984 1.4635 -2.7098 -7.0232
-11.0583 -14.6771 -17.5242 -17.9063 -14.7244 -8.6489
-2.1506 1.8614 3.0633 2.9854 2.1248 0.4360
-1.9373 -4.5488 -6.4658 -7.1558 -6.9156 -6.4213
-5.6905 -4.1621 -1.8130 0.5417 1.7687 1.5758
0.4610 -1.3864 -3.4443 -5.0060 -6.9805 -10.2923
-13.2591 -14.2588 -13.0587 -8.5738 -0.9291 6.9557
13.0720 18.8024 25.7320 32.2972 35.8074 35.4383
31.8010 25.0773 15.7290 5.7816 -2.8804 -9.7627
-14.6418 -16.6784 -16.2703 -15.2567 -13.8804 -11.4135
-7.4599 -2.1895 1.8271 2.0340 -0.3643 -2.7014
-3.0891 -0.8345 2.2621 4.5324 5.7510 4.9535
2.6201 0.8719 -0.3133 -1.9289 -3.3135 -3.7698
-3.7753 -4.1685 -5.3009 -6.2812 -6.0057 -4.4421
-2.7116 -1.8092 -1.4123 -1.6367 -2.6578 -2.9861
-1.4642 1.1149 3.6282 5.7538 6.7471 6.1192
4.0224 0.6522 -2.6207 -4.0489 -4.2390 -5.1664
-6.8914 -8.8102 -10.0752 -9.3648 -7.0639 -4.2974
-2.2367 -1.5718 -1.2954 -0.6323 -0.0146 0.5474
0.9026 0.2432 -0.9801 -2.3563 -4.8195 -7.5025
-8.6544 -9.0161 -9.2720 -8.2871 -6.0549 -3.9125
-2.0846 -0.1714 1.3607 2.1518 2.0980 0.6976
-1.2583 -2.4639 -3.4748 -4.2557 -3.6009 -1.5569
1.9061 6.3576 9.5600 10.6552 10.8138 10.3483
8.5732 6.1610 4.6262 3.8963 3.7609 5.3690
8.9562 12.5564 14.3612 14.8972 15.2218 14.9176
13.2613 10.8741 8.6752 6.1490 3.2601 1.3515
0.9722 1.4711 1.4136 -0.2706 -3.2058 -6.5630
-9.6569 -12.5420 -15.2334 -16.3249 -15.9456 -16.4168
-18.1352 -18.6592 -16.7729 -13.4194 -8.9622 -4.8130
-2.5900 -1.4381 -0.6749 -0.8947 -1.9723 -2.7959
-3.1891 -3.7121 -4.3660 -4.3131 -1.9992 1.2458
3.2221 5.0213 6.5496 6.3271 4.9369 4.2970
4.5882 3.5068 0.3323 -3.8976 -8.6942 -12.3927
-13.8126 -14.7854 -16.1404 -16.3787 -14.4246 -10.4813
-5.7237 -0.4847 5.1660 9.5832 12.0566 13.1909
12.9618 11.5809 9.0398 5.4832 3.0366 2.7102
3.4095 5.5991 9.4441 13.2984 16.1920 16.5462
12.7086 6.0832 -1.1302 -8.5077 -15.3928 -20.5975
-24.1633 -26.3975 -26.9372 -25.2503 -20.9415 -14.3486
-7.7714 -3.4737 -0.6943 1.5973 2.0620 0.1682
-1.9407 -3.3727 -4.4392 -3.7900 -0.7898 3.4475
7.5346 10.7166 13.1621 15.3657 17.9522 20.8300
22.5151 21.9623 20.3570 18.9167 17.1129 15.1116
14.2509 14.2825 14.1944 13.7789 11.6468 6.7454
0.7636 -4.6617 -9.0437 -10.6713 -9.2246 -7.3512
-6.0714 -5.4324 -6.2226 -8.1312 -10.6936 -14.1946
-17.9738 -20.2923 -20.7068 -20.1884 -19.3315 -17.4349
-13.3497 -7.9447 -2.6084 3.0942 8.5094 11.6004
12.9173 13.4237 11.7247 8.4166 5.4563 2.5934
0.1386 -0.0896 1.2941 1.8014 0.8991 -0.0339
-0.1387 -0.2500 0.1006 2.4979 5.8292 7.7183
8.5363 10.0739 12.0196 14.1805 16.6446 17.4172
14.9039 10.0739 4.5577 -1.2284 -6.5146 -10.2373
-12.3972 -12.5780 -11.2825 -10.0082 -8.0041 -4.4743
-0.1600 4.6746 9.5008 12.9721 14.8028 15.1144
14.1249 14.0405 15.5549 16.5259 16.2653 15.8768
14.9048 11.6608 7.0432 2.3505 -2.2411 -5.2478
-5.9220 -4.7943 -1.5864 2.9032 6.4524 8.8350
11.7313 15.1868 17.1761 17.2225 16.0595 13.7604
10.8743 8.1413 5.9359 4.9602 5.4119 5.6437
4.4446 3.2427 4.2489 7.6878 12.1996 15.9528
17.2540 16.0447 13.2457 8.7960 1.8720 -6.6277
-14.7556 -21.7046 -27.3433 -30.9500 -31.1104 -28.1956
-24.5202 -21.6666 -18.5598 -14.0952 -9.5416 -4.9983
-0.0821 3.9948 6.8921 9.2709 10.8252 11.3807
11.5903 11.0932 9.7355 8.1636 6.4330 4.8963
3.8771 3.2279 3.5367 5.5557 9.3404 13.8746
17.6899 20.5779 22.6812 22.7833 19.2897 12.9471
5.7727 -1.0298 -6.9143 -11.5207 -13.2475 -11.2276
-7.1647 -3.7444 -1.4963 0.4021 0.4828 -2.3134
-6.9708 -12.5928 -18.5718 -22.8638 -23.9526 -22.2935
-17.2697 -9.0538 0.1359 8.3148 14.6805 19.7757
24.0028 26.8388 27.9017 27.5845 25.4839 21.4395
17.0992 12.9722 8.3982 3.9337 0.4587 -2.4896
-5.2764 -6.9068 -6.9096 -5.8635 -4.6384 -3.8315
-3.8964 -4.6625 -6.0508 -10.2019 -17.8011 -26.0764
-32.5450 -36.8417 -38.7420 -36.9892 -31.7651 -24.9802
-18.2843 -13.1019 -10.0127 -8.1152 -7.7461 -10.0572
-13.5684 -16.6242 -19.5733 -21.3503 -20.3533 -16.9636
-11.4863 -3.9103 4.7359 12.5540 18.3475 21.2893
20.6308 18.3633 17.2356 17.1020 17.1744 18.0925
20.2580 23.2368 26.7610 30.4011 32.2958 30.5662
26.2621 21.3922 16.3351 11.8047 8.8685 7.1583
5.7524 4.3780 2.9924 1.4010 -0.3555 -2.3838
-5.2402 -9.4525 -14.2593 -17.1880 -17.0916 -15.9184
-15.9314 -16.9608 -17.8863 -17.7899 -16.3162 -14.6432
-13.2790 -11.7311 -9.7214 -6.6461 -2.0879 2.7513
6.9571 10.9413 13.2301 13.2125 13.8969 16.3611
18.3003 17.5148 14.1288 10.5406 8.0756 6.1030
3.4766 0.2139 -2.3652 -3.2917 -2.4078 -0.1654
3.4358 8.0162 11.4857 11.9540 10.1697 8.1025
5.3305 0.7880 -4.0048 -7.6477 -10.7165 -13.2585
-13.5228 -11.7181 -9.1649 -5.6482 -2.6536 -0.8182
0.2622 1.0013 1.1729 0.0266 -0.7116 -1.6409
-3.1952 -4.4370 -4.0456 -0.1987 2.8311 1.7117
-1.2894 -4.6290 -8.4453 -12.3042 -14.9047 -16.4432
-18.3008 -21.0682 -23.7392 -24.9875 -23.7725 -19.9822
-15.1597 -9.9078 -4.3275 0.5534 4.4142 7.7863
10.3747 10.5880 7.9588 3.9032 -0.2200 -3.8277
-7.5095 -11.8173 -15.7931 -18.2275 -18.1237 -14.5587
-8.4155 -2.7296 1.5254 5.4752 8.0209 7.5099
4.7982 2.4936 1.0283 -1.5462 -5.5971 -8.8514
-9.8363 -9.9189 -9.5080 -8.2115 -6.7972 -5.9727
-5.0286 -2.4541 1.3612 5.1376 8.6479 12.4855
16.6672 20.8637 26.3772 33.4144 39.6679 42.5308
40.7270 35.4510 29.1270 23.6209 20.2517 17.1977
13.1199 11.0249 11.3912 10.8922 6.8246 2.3610
-0.7978 -5.5934 -11.5956 -17.5607 -22.0596 -24.5153
-25.4381 -25.1831 -23.5397 -19.6455 -15.1105 -11.7764
-9.4486 -9.4542 -13.5821 -19.3571 -24.2686 -28.7462
-32.5754 -34.0686 -32.0654 -27.1779 -20.1101 -12.5508
-5.1677 2.9258 10.9062 17.5631 21.0094 20.3036
16.8620 11.5934 4.6675 -1.6120 -5.3661 -8.3172
-10.4548 -9.6777 -7.3860 -6.0700 -4.8616 -2.4828
1.1823 5.5050 9.5874 13.6903 18.1743 22.7937
25.7772 27.2425 30.2409 34.7351 37.1899 35.2331
30.9642 27.1016 23.2871 19.5079 15.9652 11.9681
8.3382 5.9121 3.5760 2.0291 3.4183 6.1857
8.1583 9.6449 11.7706 14.1522 15.6407 17.1236
17.0290 12.5079 4.5423 -3.4065 -9.7045 -15.9293
-22.0159 -26.3627 -28.4317 -28.9937 -28.6413 -27.0907
-23.5025 -16.2502 -6.5189 2.1802 8.3401 12.8872
16.9159 20.4001 23.4866 26.1686 27.7100 27.1202
23.6535 18.3432 13.2582 9.6543 7.1873 4.1473
-0.5816 -6.0208 -10.3769 -13.5282 -15.9404 -16.9281
-16.6675 -15.8300 -13.1220 -8.9969 -5.1407 -1.0740
2.9037 5.7304 7.3877 8.2965 7.7178 4.5637
-0.9646 -8.0333 -16.2047 -23.9105 -28.4753 -29.5112
-28.2258 -24.9038 -18.5343 -9.5283 -0.3367 8.2826
16.6089 22.9033 26.0166 26.6760 25.1578 21.8655
17.8127 14.1828 12.6767 14.2932 16.6433 17.0689
16.3836 15.3774 13.0978 9.8222 6.8368 3.8728
1.1648 -0.2606 -0.7345 -0.1707 1.8344 4.0639
4.8828 3.9888 1.8094 -1.5173 -5.8195 -10.8275
-16.0832 -21.0513 -26.1585 -30.2169 -30.5248 -27.9466
-24.8463 -21.7246 -19.5795 -20.0339 -21.9546 -22.4137
-21.4148 -20.7888 -19.9440 -17.3249 -13.7090 -10.7960
-9.2481 -8.6156 -8.2465 -8.3114 -8.7306 -8.1185
-5.4291 -2.0375 -0.3552 0.0918 2.3000 5.0442
4.8967 3.0892 1.8150 0.7670 -1.0953 -3.0206
-3.7847 -4.4015 -5.6117 -7.2226 -9.2138 -11.1057
-11.8820 -10.8961 -9.1517 -7.0344 -4.5350 -2.6718
-1.2000 1.7074 7.7198 15.5703 22.5713 26.6334
26.9023 24.4076 20.0117 14.8868 10.0569 5.6118
0.8737 -4.1167 -7.8384 -10.4482 -11.9255 -11.5128
-10.2423 -9.5449 -9.3436 -9.6645 -11.7539 -14.2125
-13.6245 -10.7291 -9.2212 -7.8820 -3.5501 1.9745
5.8715 7.8191 7.8886 4.9163 -1.5283 -9.0737
-15.2187 -19.9142 -22.2828 -20.7832 -16.6404 -11.5814
-6.3490 -1.4133 3.0735 6.6413 9.0776 10.8007
11.1003 9.5737 6.6691 3.5085 1.5192 -0.2151
-1.8176 -3.0251 -4.2892 -5.3446 -7.5629 -11.6148
-16.1452 -19.6619 -22.3180 -24.5206 -24.4130 -20.4280
-12.8992 -4.5674 2.1647 7.3480 11.2774 14.0383
15.1067 14.4621 12.6926 10.6106 9.2390 7.9424
6.1275 5.1185 7.1885 11.3952 14.1756 15.7661
18.5344 21.7822 23.1872 23.2865 24.5848 26.5454
27.1862 27.1927 26.0251 22.0864 16.3596 10.3621
4.7188 -0.1547 -3.4090 -5.1470 -5.9650 -6.2877
-6.8525 -7.2003 -6.9564 -6.9081 -6.9925 -7.1826
-8.3243 -9.9714 -11.3476 -12.9910 -14.4582 -14.1373
-12.3019 -10.3655 -8.7490 -7.0695 -5.2703 -4.4180
-4.6017 -5.3723 -6.9953 -8.5645 -9.6727 -10.4740
-9.3296 -5.1757 0.5557 5.5303 9.1175 11.4759
12.6129 12.7641 11.8812 10.8249 9.4913 7.5762
5.3235 2.9373 0.9498 -2.3898 -6.5881 -9.3546
-11.3624 -12.8760 -12.8315 -10.1253 -5.6950 -0.7223
5.0351 11.0939 17.0163 22.3155 27.0407 30.9933
32.7999 32.0394 29.9416 27.7585 25.2944 22.2311
18.2145 13.2557 8.1994 3.2758 -1.4391 -5.4001
-7.7863 -8.1054 -6.2719 -2.8627 0.8080 4.4657
8.9664 13.8492 17.6850 20.7074 23.1818 24.5321
24.8409 24.1732 22.1236 17.6349 11.5511 5.5415
-0.2734 -5.4056 -9.7979 -12.5374 -12.5513 -10.6706
-8.5672 -6.9952 -5.9528 -6.7235 -9.5475 -12.6283
-13.8525 -12.8082 -10.4814 -7.9504 -6.1707 -5.0532
-5.1404 -7.2595 -10.9182 -14.6055 -17.0660 -18.9987
-21.3756 -23.3464 -23.8639 -22.0573 -16.5336 -7.8577
2.2492 12.8931 22.4185 28.7194 31.5841 31.8475
30.0085 26.9731 23.5528 20.5192 17.8427 14.2508
8.9906 3.2601 -1.2193 -5.2108 -9.8553 -14.2689
-17.5482 -20.2117 -22.4820 -22.7463 -19.8778 -14.9663
-9.4166 -3.2828 2.5952 5.9385 7.0820 8.0854
8.7615 7.7163 5.0695 1.6789 -2.0298 -5.2563
-7.6490 -9.4537 -10.4359 -10.1725 -9.3387 -8.9715
-8.8583 -8.5875 -8.3047 -7.9439 -6.9460 -5.3444
-3.6555 -2.0678 -1.1877 -1.9148 -4.2111 -6.7401
-9.1013 -11.7055 -13.9906 -15.4438 -15.3817 -13.6855
-10.6732 -6.1289 -0.5320 4.5669 8.1142 11.0541
13.7288 16.1354 18.7219 20.6398 21.4272 21.0637
19.5622 16.9515 13.4292 9.9181 6.7509 4.5919
3.8574 3.5662 3.7489 4.6031 5.4739 6.1370
7.1535 9.2012 11.0829 11.8916 12.5667 13.1380
13.0369 12.0706 10.1471 7.4020 4.9926 3.6043
1.7235 -1.7506 -5.8664 -9.6725 -13.6687 -17.5972
-20.1504 -21.0964 -20.9656 -21.0509 -22.4031 -24.8941
-27.7199 -28.8393 -28.3839 -28.6381 -29.5117 -29.6146
-28.2467 -26.1823 -24.0928 -20.9331 -15.9112 -10.0527
-5.1217 -1.7404 0.6486 2.7650 4.5753 5.4971
5.6186 5.2560 4.5475 3.6145 2.4756 1.9609
2.1056 1.8663 1.2876 0.5272 -0.9882 -3.0554
-4.5699 -5.9007 -7.7212 -9.7124 -11.7221 -12.7431
-12.1023 -11.0265 -10.5990 -9.8700 -7.8297 -5.1189
-2.3441 -0.4151 -0.5347 -3.0665 -7.6210 -13.0687
-17.9867 -20.9294 -22.1860 -22.8630 -22.5542 -20.6409
-16.5028 -10.6704 -4.6125 0.8778 5.0335 8.0902
10.1750 10.7250 10.0007 8.2692 5.8570 3.6294
2.7307 3.6322 4.7330 3.9994 1.2738 -2.3283
-5.5158 -7.7138 -8.5660 -8.1598 -7.8659 -8.6059
-9.9182 -11.1693 -12.0308 -12.3508 -12.7978 -13.1261
-12.9286 -12.8219 -12.1032 -10.3012 -8.2136 -6.4923
-4.8323 -2.7484 -0.3900 2.3310 5.3729 8.6810
11.6450 12.9276 12.8683 13.2476 14.8631 17.0379
18.7304 19.7933 20.2829 19.4112 17.2188 15.0533
13.7326 12.7041 11.8166 11.9845 13.3645 15.5216
17.8401 19.6903 20.4851 20.0001 18.9336 17.7632
16.9257 16.4676 15.5179 14.0127 12.7783 12.1023
11.5838 11.2110 11.4549 12.4417 13.6557 14.7315
15.8175 16.4379 16.0948 15.7312 16.2320 16.8692
17.0259 16.9767 16.2172 13.6993 10.0444 6.8810
4.1024 1.2534 -1.1402 -2.9709 -4.3259 -4.9695
-4.2600 -2.2429 0.0200 2.0863 4.0450 5.2979
4.6589 2.4572 0.6024 -0.2758 -1.1977 -2.3820
-2.6240 -1.4592 0.0738 0.8343 1.0986 1.2423
0.6609 0.0886 0.9363 3.6749 7.4356 10.5786
13.0473 15.3863 17.2244 18.0535 18.3456 18.6248
18.9086 19.3528 19.6069 19.5791 19.4075 19.4261
19.8026 20.0002 19.6654 18.5404 16.6337 13.7605
9.7189 5.0420 0.0562 -4.9713 -8.8692 -11.4372
-13.8726 -15.9147 -16.6965 -16.7290 -16.8356 -17.3262
-17.8919 -17.4486 -15.1617 -11.5735 -8.4129 -6.6007
-5.2078 -3.1767 -0.6690 1.3323 3.0935 5.2803
7.3540 8.9519 9.9712 10.8485 12.0430 13.4174
14.6017 14.4673 12.0625 7.8966 2.8607 -2.4014
-6.7305 -9.8494 -12.3905 -14.6497 -16.3394 -17.0582
-16.8041 -15.6967 -14.5542 -13.6091 -12.4276 -11.1571
-9.9051 -7.8759 -5.3394 -4.3072 -4.8609 -5.6325
-6.2242 -7.2888 -8.8265 -9.5999 -9.2355 -8.2394
-6.8362 -5.4340 -4.8952 -5.5518 -7.2610 -9.9329
-12.9089 -14.3631 -13.6787 -12.6669 -11.8322 -10.6210
-9.5100 -8.4527 -6.9957 -5.2754 -3.9761 -3.7628
-4.4667 -5.9737 -8.4481 -10.8686 -11.9240 -12.0408
-11.8118 -10.6395 -9.0546 -7.8962 -6.9994 -6.4467
-6.2547 -6.2770 -5.9756 -5.0593 -3.9547 -2.9698
-2.4718 -2.2687 -2.6341 -4.6234 -7.5837 -9.8846
-11.0986 -11.9963 -13.1305 -14.5022 -16.3746 -18.8360
-21.1693 -22.4389 -22.0624 -20.0063 -16.7669 -13.3234
-10.0163 -5.8930 -1.3357 1.5114 2.6243 4.3577
6.9294 7.7770 5.8721 3.1298 0.5553 -2.7361
-6.7481 -10.3390 -12.7382 -14.4094 -15.4203 -14.8833
-12.4962 -8.6103 -3.8620 1.0756 5.1079 7.2215
7.9653 8.0052 6.7402 3.8133 0.2084 -2.9067
-5.2058 -5.8624 -4.3470 -1.8958 0.4320 2.8608
5.9528 9.5503 13.0401 15.7240 17.0725 16.6737
13.8776 9.7506 6.6818 4.7194 2.8358 1.3037
0.1463 -1.2810 -2.6609 -2.5645 -0.7384 1.5820
4.0034 6.6577 9.2795 11.7269 14.1243 16.8583
19.1684 19.8594 18.5146 15.3355 11.0314 5.3417
-1.4247 -8.1169 -13.4921 -16.3476 -17.5440 -17.6757
-16.2818 -13.9021 -11.9610 -10.9019 -9.8456 -8.8504
-7.7969 -7.1153 -7.9407 -9.9049 -11.9480 -14.0671
-16.8178 -19.1753 -20.5812 -21.6580 -22.6466 -23.4386
-23.7817 -23.0778 -20.7482 -17.2472 -12.9487 -7.5038
-1.0852 4.9355 9.3203 12.0692 13.4862 13.5521
12.0924 8.9605 4.7306 -0.1031 -5.4672 -10.3871
-14.3156 -17.3177 -19.4553 -20.5015 -20.0109 -18.6151
-16.1306 -11.8088 -6.0033 0.3643 6.2868 11.7474
16.6905 21.0512 24.9945 27.6654 28.3907 27.5402
25.9238 23.9437 22.5870 22.7400 23.5329 23.8788
23.4652 22.2559 20.2174 18.4331 18.1576 18.9209
19.1908 18.3719 16.9557 14.6595 10.7847 5.7433
0.8485 -3.1978 -6.3584 -8.5026 -9.7036 -10.2684
-9.8817 -8.1205 -5.6434 -3.2219 -0.4823 3.2403
7.0167 9.5096 11.1353 13.2025 15.7427 17.5196
18.3571 18.6371 17.5725 14.4267 9.2341 2.7349
-4.4016 -11.0149 -15.7141 -19.7623 -23.8800 -27.7695
-31.8548 -35.6173 -38.2873 -38.6758 -36.0485 -30.3227
-22.7578 -15.3227 -7.3368 2.0310 11.7511 20.2091
26.2243 29.8737 31.1108 29.8115 26.9254 23.5905
19.9411 15.9115 12.1342 9.1971 7.9163 8.7417
11.2058 14.6994 18.3710 22.0232 26.0138 29.5584
31.4262 31.8157 31.8259 31.0821 28.3861 23.7463
17.5577 10.5993 4.1548 -1.3661 -6.1265 -9.7397
-11.7772 -12.8335 -12.9671 -11.0854 -7.8533 -5.6007
-4.7678 -4.4377 -4.6760 -5.4866 -6.4937 -7.8728
-10.2813 -14.0067 -18.5399 -22.3933 -24.6932 -26.3366
-27.2724 -27.0090 -26.2012 -25.8033 -25.5103 -24.0283
-21.7580 -19.1557 -16.1564 -13.2601 -10.4519 -7.6595
-4.9709 -2.3695 -0.3710 0.6640 1.4931 2.3222
3.0289 4.2550 5.8510 7.2969 8.4886 8.8160
8.1872 7.2524 5.5431 2.9019 0.9747 0.5602
0.1864 -1.4773 -3.6122 -4.3050 -3.1968 -1.0025
2.4567 7.3720 12.9281 17.5615 20.8807 23.2994
24.8732 25.9007 26.7002 27.3327 27.3772 26.7493
25.0373 21.9120 18.2533 14.8469 12.2010 10.2943
8.1306 4.6872 0.3970 -3.2719 -5.6080 -7.1271
-8.7102 -10.5984 -12.7259 -14.8904 -16.6562 -17.8943
-18.2004 -17.4918 -16.7286 -16.3381 -16.5561 -17.3750
-17.9175 -17.4334 -15.6778 -12.9605 -9.7127 -6.5326
-3.8886 -1.9493 -1.0933 -1.5561 -2.7942 -4.4218
-6.8414 -9.7303 -12.1045 -13.2257 -13.0430 -11.8198
-9.6079 -6.9416 -4.8512 -3.9256 -3.8208 -4.1325
-4.6518 -4.8456 -4.6110 -3.9961 -2.7849 -1.6544
-0.9014 -0.4182 -0.0045 0.5194 0.0196 -1.3706
-2.6783 -3.1772 -2.9472 -2.3546 -0.5016 1.4802
2.7369 4.0464 5.2455 6.5968 7.5706 7.3888
6.4530 4.9302 3.4204 1.9746 0.5612 -0.4747
-1.5885 -2.8962 -4.6230 -6.5075 -7.9608 -9.1228
-10.0066 -10.4462 -9.8972 -7.9431 -5.2323 -2.6458
-0.5044 0.8014 0.2014 -2.4454 -5.7034 -8.4458
-10.1068 -10.4546 -9.7126 -8.1509 -6.1467 -4.2873
-3.0158 -1.7610 0.6901 4.3534 8.3496 12.5499
16.4070 19.8829 23.9709 27.7937 30.6909 33.1551
34.7919 34.7140 32.5782 29.3879 26.0455 22.8803
20.3049 18.7255 17.9650 16.7891 15.1782 13.6535
11.8571 9.7445 7.1088 3.8684 0.6568 -1.4874
-2.2859 -2.4890 -2.2905 -1.6432 -1.4076 -2.9583
-6.8645 -12.1823 -17.9415 -23.6478 -29.1159 -34.2917
-38.0542 -39.7338 -39.6178 -38.1998 -36.2625 -33.8252
-30.5274 -26.6360 -22.6870 -18.4766 -13.5112 -8.5431
-4.8919 -2.8163 -1.7285 -0.9040 -0.0823 0.6698
1.5759 2.8817 4.5937 6.4856 8.6910 11.5205
14.4771 16.7863 18.2368 19.5871 21.4085 23.0389
23.9292 23.9830 23.0964 21.1368 18.6579 16.3393
14.0867 11.6596 8.5222 4.9331 2.0878 0.7004
0.2673 -0.8140 -3.0973 -5.3379 -6.8311 -8.2546
-9.7051 -10.6353 -10.8959 -10.8152 -10.7772 -10.3116
-9.1978 -7.6787 -5.7033 -3.8522 -3.1103 -3.3635
-3.2485 -2.0104 -0.2594 1.1437 1.8291 1.9664
1.7651 1.3765 1.1354 1.3979 2.3039 3.5801
5.2475 7.6820 11.1932 15.0586 17.3911 17.5534
16.5388 15.8849 16.1845 17.4717 19.9285 22.3453
23.4647 23.8746 25.0079 26.9684 29.3880 32.4281
34.9145 35.7547 35.5665 35.0786 34.3747 33.2618
31.7928 29.7562 26.6030 23.0223 19.6076 16.2633
13.9532 13.0972 12.6056 11.2322 8.8088 5.4637
1.5973 -1.3834 -3.0574 -4.0627 -5.7181 -7.7426
-8.8926 -9.5576 -9.8905 -9.8729 -8.8528 -7.4180
-6.7865 -6.2690 -5.6856 -5.6022 -6.1466 -6.1837
-5.3239 -4.9966 -5.2052 -4.9326 -4.3233 -4.0135
-3.8494 -2.8329 -1.1144 0.1255 0.2442 -0.7787
-2.1689 -3.0555 -2.9182 -1.8480 -0.5867 0.2915
0.5892 0.3908 -0.4179 -1.8137 -3.2122 -4.2147
-4.7313 -5.2636 -6.0881 -6.8106 -7.5924 -8.7906
-10.3273 -11.8761 -13.3599 -14.8169 -16.0754 -16.5178
-15.6933 -13.9674 -11.6535 -8.6579 -5.2775 -2.6520
-0.7351 1.7559 4.5206 6.0628 5.9701 4.8739
2.9347 0.4789 -1.2952 -1.8183 -1.0597 0.1738
0.5021 -0.0543 -0.9141 -2.0909 -4.1795 -6.7484
-8.7776 -10.4970 -12.7005 -15.6033 -18.2381 -20.6076
-23.5280 -26.3065 -27.7820 -27.9443 -27.9740 -28.0630
-27.2052 -25.0397 -22.0377 -19.2155 -16.8497 -13.9247
-10.0722 -6.7326 -5.3841 -5.9063 -7.2733 -9.3052
-11.8482 -13.9061 -15.0941 -15.5439 -15.3260 -14.2928
-13.3385 -13.1030 -12.7478 -11.4420 -9.1735 -6.9004
-4.4113 -1.9490 -0.4438 0.5235 1.0057 1.6577
2.8800 4.5503 6.9235 9.3079 11.9733 15.1821
18.1573 20.4906 22.4252 24.0166 25.6786 27.3442
28.0509 27.4712 24.9774 21.1565 16.5918 12.3433
9.3135 7.7656 7.1387 5.8181 4.7673 4.2350
4.1005 4.2851 4.1061 4.0699 3.6146 2.2958
0.9724 -0.0524 -0.1776 0.4345 0.2573 0.0505
1.1616 2.9246 4.2795 4.5772 3.8084 1.8339
-1.5223 -4.9278 -7.3418 -9.0436 -9.8894 -9.4573
-7.6488 -5.2218 -2.7595 -0.1312 1.9517 3.4625
4.5207 4.8981 4.7924 3.9809 3.3336 2.6677
2.0603 2.7094 3.7658 4.9139 5.8840 5.3071
3.8539 2.2801 0.4058 -0.7822 -1.6058 -1.3786
0.1192 1.1189 1.5929 1.6939 1.8989 2.6612
3.5284 3.5859 2.4952 0.0088 -3.1175 -6.5962
-10.9865 -15.0477 -18.5013 -20.8913 -22.1331 -22.4094
-21.3253 -18.8185 -15.4409 -11.9686 -8.7487 -7.1099
-6.1389 -5.5482 -6.8169 -9.2866 -12.8246 -16.9433
-21.5478 -26.6820 -29.6868 -30.6031 -29.7174 -26.9574
-24.0092 -20.4850 -17.6434 -14.8260 -10.5302 -6.1361
-1.4935 2.9117 6.9719 10.2215 11.8148 12.7765
13.2866 14.0443 15.4141 16.6587 17.5564 17.8773
17.4451 16.2274 14.9003 14.3263 14.7158 15.7953
16.6976 16.0503 14.2595 12.2980 10.0648 8.0468
6.2986 5.0661 4.2296 3.4366 3.4719 4.0255
4.1609 3.8159 2.8477 0.6294 -3.5959 -9.5833
-15.0800 -18.7609 -20.5842 -21.2000 -22.4372 -25.1768
-28.3745 -30.7894 -32.9512 -34.9674 -35.9514 -35.4673
-34.2412 -33.0838 -31.7632 -29.6200 -25.8065 -21.5348
-17.5571 -14.0200 -12.5083 -12.9535 -15.5289 -19.5177
-23.1624 -26.4658 -28.9856 -29.9297 -27.9877 -23.1503
-16.0232 -6.7231 3.0675 12.5911 21.2958 28.3794
33.5951 36.9681 38.9861 39.6298 38.6727 35.5482
30.1693 23.8415 17.6650 11.4189 5.1561 -0.6328
-6.2473 -11.5150 -15.9861 -19.6104 -21.8250 -22.0133
-20.4562 -17.7787 -14.2871 -10.7870 -7.6338 -4.3879
-1.6631 0.1156 1.3092 1.8258 1.8230 1.7034
1.8453 1.9770 1.5856 1.5745 2.6067 4.7861
8.1702 12.5893 17.6372 21.9821 25.3421 28.5287
31.3833 33.9633 36.4404 38.2007 38.4965 37.5663
36.9348 36.7437 36.8550 37.5218 38.2517 38.9491
39.2885 39.0826 38.1849 37.3456 37.3289 37.3651
36.9774 35.6939 32.7234 28.3525 23.6097 18.7585
14.3950 11.4996 9.9471 8.3761 6.2681 3.8912
1.3621 -0.8284 -3.1497 -5.0574 -6.1944 -7.1478
-7.3045 -6.7277 -6.2909 -5.8782 -4.4935 -2.4746
-0.6550 0.5256 0.7602 -0.3397 -2.8548 -5.9987
-9.2419 -12.0260 -14.0477 -15.0975 -15.0679 -13.8706
-10.6024 -5.1028 1.2833 7.0518 10.7633 11.8382
11.1964 9.3518 6.6196 3.6556 0.8947 -1.0649
-1.4794 -0.0086 3.6705 9.5030 15.5376 19.4272
20.0940 17.8330 13.8386 9.1042 4.4987 0.2075
-4.2245 -8.7039 -12.9042 -16.0397 -17.5885 -17.9799
-18.2145 -19.3960 -21.7943 -25.4798 -29.2349 -31.7380
-33.0086 -32.5680 -30.3126 -27.0379 -23.5796 -19.5314
-14.1265 -7.8553 -1.5044 3.8541 7.1446 8.1267
7.0778 4.3475 1.0339 -0.8487 -0.2877 2.2052
5.7961 10.2329 15.2789 19.3799 21.3386 21.4981
19.9484 16.3056 10.6335 3.4665 -4.4387 -12.1817
-18.5632 -22.3637 -22.7838 -20.2993 -16.6639 -13.1796
-9.9485 -6.6395 -3.1172 0.6203 4.1806 6.6077
6.9360 5.0682 1.5876 -2.8705 -7.0151 -9.8984
-12.1770 -14.6606 -17.1990 -18.7653 -17.8185 -13.8835
-8.1855 -2.6164 1.5496 3.8338 4.2938 3.9200
3.2449 2.6476 2.7775 2.9843 2.8285 2.9045
4.5433 8.2937 12.6108 16.6107 20.4048 23.2946
24.3453 24.0254 23.3076 22.2160 20.5021 18.7215
17.3953 15.5424 12.6182 9.4233 6.8238 4.9996
3.4953 1.4754 -1.0694 -3.4213 -5.8419 -7.5501
-7.4676 -6.6199 -6.0347 -5.9856 -6.8314 -8.8355
-11.3395 -12.7056 -12.7575 -13.2092 -15.2819 -18.6633
-22.5714 -26.5240 -30.0992 -33.2477 -35.1016 -34.3903
-31.3475 -27.4375 -23.9810 -20.7703 -16.9596 -12.7918
-8.9765 -5.7945 -3.8822 -3.2627 -3.1523 -3.2516
-3.6708 -4.2847 -4.5416 -4.1715 -3.1393 -2.1183
-1.9476 -2.3520 -2.3761 -1.8883 -1.2539 -0.4443
-0.0752 -0.4461 -1.0276 -1.4663 -2.3074 -4.0621
-5.8019 -6.7275 -7.0910 -7.2598 -6.2508 -3.3517
-0.1707 2.3148 4.3171 5.3502 5.0599 3.2515
0.4173 -2.5903 -5.6925 -7.6586 -7.7866 -6.8656
-5.4133 -3.9415 -1.7936 1.5423 5.4698 9.8491
14.7477 19.2178 21.8090 22.7707 23.1472 23.2038
22.6149 21.3610 19.9987 18.5927 17.5188 17.6588
19.0193 20.1999 19.8392 18.3757 16.1907 13.1794
9.5440 5.9493 2.5680 -1.3930 -5.4328 -8.6574
-10.4009 -10.5001 -9.6256 -8.3921 -7.3200 -6.6486
-6.6764 -7.3961 -8.1807 -8.6509 -9.4327 -10.5103
-11.1150 -11.4127 -11.3450 -10.2006 -7.7624 -4.9004
-2.4725 -0.5203 0.5249 0.5797 0.0566 -1.1973
-3.0641 -5.1258 -7.3849 -10.0076 -12.6053 -15.0713
-17.5215 -19.6722 -21.2145 -21.9861 -22.6269 -23.1036
-22.5824 -20.6154 -17.4325 -13.5309 -8.6573 -2.9890
2.5087 6.7460 10.0550 13.4688 16.6860 18.8274
19.1594 18.3535 16.9707 14.4417 11.0984 8.1770
5.8631 3.1978 0.4397 -1.5682 -2.7868 -3.5361
-3.5955 -2.9055 -2.0106 -1.4838 -1.8946 -2.7673
-3.6094 -4.6064 -6.2980 -9.3733 -13.4437 -17.2859
-20.2638 -22.6185 -24.1228 -24.5243 -24.3583 -23.9707
-23.4485 -22.4479 -19.9782 -16.1563 -12.0442 -8.1212
-4.4756 -0.7604 2.4874 4.1345 4.1901 3.1310
1.4710 -0.4339 -2.3064 -3.4313 -3.3849 -1.8974
0.7726 3.7237 7.1838 11.3637 15.5546 19.1372
22.5139 25.5725 28.0329 30.6436 33.0567 35.2695
37.3543 39.0719 40.4306 40.8729 40.4983 39.7498
38.9912 38.4719 38.1853 38.3801 39.2481 40.3564
40.9314 40.1783 37.7949 34.3764 30.6010 27.0360
23.7808 20.8112 18.2766 15.6010 12.7363 10.2026
8.5527 7.9490 7.7598 7.8330 8.2866 9.0146
9.3985 9.0025 7.8201 5.4644 1.8049 -2.6828
-7.0129 -10.6345 -13.3666 -15.1380 -16.4382 -17.4815
-18.3431 -18.7493 -18.0936 -16.3046 -14.2022 -13.1301
-13.0068 -12.5208 -11.3578 -10.0270 -8.1555 -5.1071
-1.5115 1.9728 5.7937 10.1284 14.3927 17.6599
18.9054 17.6979 14.2749 9.9865 6.7295 5.3588
5.3217 5.2985 4.9720 4.4675 3.3045 1.6167
0.1161 -0.9968 -1.9789 -3.1029 -3.9441 -4.1166
-3.7920 -2.7236 -1.3566 0.3025 2.2306 3.5438
4.2134 4.2997 3.9296 2.9874 1.2902 -0.8660
-3.0742 -4.9540 -6.6521 -8.8009 -11.1231 -13.0206
-15.0034 -17.5297 -20.3008 -22.3244 -23.4456 -24.6763
-26.4968 -28.5955 -30.0673 -30.5051 -30.5691 -30.5783
-30.5134 -29.7038 -27.6746 -25.5916 -22.8289 -19.2454
-15.8195 -12.3260 -9.6059 -6.7272 -3.1326 0.5669
4.5510 7.4409 9.1232 10.1211 10.6617 11.1737
11.5122 11.8507 11.7005 10.9697 10.6274 11.3870
13.2019 15.8571 19.5547 23.8301 27.2374 29.1692
30.2450 30.6039 29.7256 27.4173 24.3800 21.2899
18.2369 15.4964 13.3522 11.7097 10.3539 9.2345
8.1791 6.7602 4.7829 2.4885 -0.0702 -3.1279
-6.5630 -9.4352 -11.3457 -12.5420 -12.7804 -12.3769
-11.4783 -10.3236 -9.3981 -8.9103 -9.5641 -11.3911
-13.6670 -16.0309 -18.1028 -19.6218 -20.7561 -21.2012
-21.2179 -20.7950 -19.6079 -18.4357 -16.5976 -14.0249
-11.9225 -10.1817 -9.9536 -11.4152 -14.0657 -17.4981
-19.9687 -21.6436 -22.0489 -21.0510 -19.4790 -17.7030
-16.3091 -14.2920 -11.5552 -8.7155 -5.5975 -1.8341
2.9662 8.1207 13.2595 18.3955 22.8396 26.1950
28.2715 28.7853 27.7948 25.3557 21.7054 17.0202
11.7182 6.6211 2.1139 -1.7432 -5.4473 -8.7980
-11.4736 -13.6576 -15.3585 -16.7042 -17.7920 -19.2944
-21.0834 -22.7258 -24.1049 -24.8505 -25.2771 -25.2196
-24.8116 -24.4684 -24.0520 -23.2461 -21.4339 -18.9717
-15.9826 -12.1376 -7.8400 -3.4821 0.6523 4.8229
9.2244 13.3291 16.7679 19.4009 21.4115 23.0873
24.3523 25.3354 25.9113 26.0569 26.4074 27.3729
29.2360 31.5713 34.0475 36.2102 37.2368 36.7323
34.3897 31.0547 27.3302 23.8534 20.4507 16.8422
14.1517 11.6802 9.4646 7.7090 5.9052 4.9277
4.3073 4.2099 4.6699 4.4937 4.0420 3.4995
3.1610 3.1350 3.4624 4.0977 4.4214 4.2127
3.0210 1.1235 -0.5950 -1.8043 -2.7883 -4.0181
-5.8376 -7.9948 -9.6678 -10.3272 -9.9618 -8.8517
-6.9310 -4.5606 -2.5889 -1.0466 0.3547 1.5631
2.3505 2.8021 2.9014 2.1724 0.9343 -0.4679
-2.2337 -4.4938 -7.4615 -10.2994 -12.6318 -14.5859
-15.5782 -15.5031 -14.1416 -11.8231 -9.1735 -6.8522
-5.2172 -4.1358 -3.9874 -4.6283 -5.8942 -7.4402
-8.8730 -10.1797 -11.3121 -12.5938 -13.5518 -14.0628
-14.4124 -14.1852 -13.9376 -14.1639 -14.5617 -14.9865
-15.3064 -15.3074 -14.4263 -12.6605 -10.9281 -9.2848
-7.6284 -6.3931 -5.6224 -5.2644 -4.8666 -4.5930
-4.8211 -5.1633 -5.4889 -5.5334 -4.9686 -3.9670
-2.9552 -1.6577 0.0209 1.5604 3.0313 4.5207
5.8914 6.8160 7.0089 6.5350 5.6085 4.5865
3.5951 2.4952 1.0800 -0.5374 -1.7059 -1.7347
-0.8045 0.4818 2.1929 4.4465 6.6268 8.0959
9.2477 10.1408 10.2827 9.9655 9.6233 9.2839
8.2424 6.3125 4.3102 2.6084 1.1997 -0.0273
-1.1254 -2.6027 -4.8702 -7.4188 -9.7929 -11.4150
-11.5365 -10.2464 -8.2275 -5.9145 -3.5978 -1.4175
0.7694 3.1667 5.2460 6.3551 7.0433 8.0180
9.1318 9.8886 10.7492 11.8760 12.2757 11.6822
10.3866 8.7683 7.1527 5.5585 3.8372 1.9045
0.2092 -0.7432 -0.8471 -0.5744 -0.2248 0.4077
1.0504 1.2609 0.3993 -1.3349 -3.1721 -5.0835
-7.1266 -9.2429 -10.7361 -12.0224 -13.7492 -15.4594
-16.7420 -16.7865 -15.8619 -14.4949 -12.7903 -11.2749
-9.8392 -8.2849 -6.3448 -4.1394 -2.3578 -1.1188
-0.5345 -0.3926 -0.3657 -0.6885 -1.6094 -2.8781
-3.6859 -3.8667 -3.6961 -2.9773 -1.3173 1.2285
4.2222 7.4514 10.7307 13.8487 16.3119 17.4081
17.0501 15.6590 13.4722 10.5935 7.1992 3.5034
-0.3156 -4.1319 -7.5624 -10.3975 -12.8134 -14.5922
-15.4890 -16.1706 -17.2335 -18.8184 -21.0683 -23.6057
-26.3082 -29.0394 -31.7641 -34.1364 -35.1501 -35.4867
-35.0879 -33.4668 -31.4553 -28.7055 -25.4985 -21.8121
-17.8223 -14.4762 -11.2924 -8.6224 -6.1945 -3.4976
-1.1957 0.4272 1.4047 1.9538 2.4342 3.3940
5.0736 7.1194 9.1440 10.9580 12.2564 13.0771
13.3971 13.3349 13.1968 12.8638 12.2248 11.0841
9.3814 7.3309 5.2405 3.7632 3.6111 4.7787
6.5584 8.5755 11.2947 13.9192 16.2665 18.2651
19.3195 20.1876 19.7712 17.9525 15.2389 11.6554
8.3965 4.3743 -0.6430 -5.4135 -9.9263 -13.5339
-16.4942 -18.7210 -19.2792 -18.4882 -16.4414 -13.5330
-10.0404 -5.9783 -2.3540 0.3958 2.6169 4.3215
5.2443 5.2656 4.6108 2.8534 -0.2571 -3.8954
-7.1886 -9.5943 -11.4259 -12.9404 -13.6294 -13.6369
-13.6007 -13.4301 -12.9088 -11.7691 -10.2611 -8.7299
-6.9614 -5.5758 -4.6827 -4.2849 -4.1930 -4.3368
-5.0147 -5.1956 -4.7894 -3.9213 -2.3651 -0.7227
1.0441 2.7125 4.3113 6.1782 8.0896 10.5658
13.2488 16.0023 18.7205 20.7506 22.1770 23.3668
24.7533 25.8727 26.6944 27.2879 27.4224 27.0208
25.8551 24.2497 22.3532 20.2786 18.3087 16.7368
16.0570 16.0459 16.4919 17.3554 18.3922 18.8967
18.1594 16.4929 14.3404 11.8317 8.7870 5.5810
2.6439 -0.5381 -3.9769 -7.1922 -10.2944 -12.7854
-14.1061 -14.5911 -14.3917 -13.7861 -12.6241 -11.2311
-10.0153 -8.5184 -7.2358 -6.4197 -5.8159 -5.1046
-4.1512 -3.1626 -1.6287 0.3921 2.5400 4.8669
7.2865 9.7117 11.8716 13.8461 15.1964 15.5989
16.2759 17.8590 19.7259 21.3757 22.8716 24.4353
26.1148 27.6636 28.7830 29.2912 29.0528 27.8027
25.5064 22.7335 19.9614 17.4166 15.1612 13.2182
11.4719 9.5986 7.7929 6.3647 5.1247 4.0851
3.1763 2.1552 1.0840 0.0472 -1.1056 -2.6052
-3.9926 -5.2149 -7.1746 -10.2758 -14.1950 -18.2191
-22.1244 -25.7469 -28.4401 -29.9286 -30.4117 -30.4618
-30.1001 -29.1504 -28.0032 -26.5936 -24.8482 -23.2373
-22.2533 -21.7998 -21.5911 -21.5874 -21.3945 -20.6489
-19.4757 -18.2701 -16.9198 -15.3394 -13.7953 -12.0917
-10.2693 -8.4673 -6.8314 -5.3587 -3.6049 -1.4070
1.6043 5.4281 9.0301 11.5137 12.6952 12.7388
11.5388 9.1451 6.3889 3.7893 1.2427 -1.1936
-3.4417 -5.3521 -7.0725 -8.6157 -9.4847 -9.7045
-9.7388 -9.9604 -10.3537 -11.0409 -11.9701 -12.7399
-13.1887 -13.0487 -12.2882 -10.6838 -8.1418 -5.2603
-2.1924 1.1101 4.3996 7.3571 9.6395 11.2726
12.4245 12.9642 12.6387 11.7827 11.1706 10.5975
9.8379 9.6376 10.4203 11.8959 13.5392 14.9721
15.7122 15.1557 13.4938 11.3088 8.8094 6.0699
3.1216 -0.1911 -3.9999 -7.6233 -10.3128 -12.0786
-13.1933 -13.6311 -13.3640 -12.9615 -12.2381 -10.9045
-9.0246 -6.7052 -4.5044 -2.7108 -1.5683 -0.7475
-0.1104 0.0009 -0.3153 -0.7410 -1.3216 -2.5893
-4.0982 -5.0952 -5.4328 -5.2955 -4.5666 -3.1625
-1.6990 -0.3951 0.6668 1.7426 2.6793 3.0364
3.2515 2.9399 1.8947 0.5463 -0.7781 -1.5552
-2.0329 -2.1803 -1.9179 -1.3076 -0.2179 1.0962
2.6571 3.7931 4.0602 3.8636 3.1773 2.0468
0.8310 0.0019 -0.5221 -1.2232 -1.9401 -2.2851
-2.2406 -1.9855 -1.3605 -0.1456 0.9219 1.3986
1.6499 1.6351 1.3939 0.9534 0.5185 0.5426
0.6530 0.7568 1.0694 1.5173 2.1359 2.2833
1.7427 0.9998 0.4081 0.2356 0.2338 0.7698
1.9921 3.4881 5.6712 8.6398 11.9312 15.0696
17.8147 19.9654 21.1784 21.4622 21.1997 20.8854
20.4040 19.2475 17.1451 14.2303 11.3497 9.1963
8.0342 7.7041 7.6076 7.6104 7.5038 7.0261
6.3760 5.8817 5.6211 5.1379 4.1901 2.8853
1.4654 0.3071 -0.2809 -0.2670 0.1605 1.3541
3.5363 5.8725 7.6633 8.6844 8.9496 8.6389
7.7866 6.7952 5.9828 5.8076 6.1526 6.5031
7.4750 9.0071 10.6329 11.9609 12.5656 12.2605
10.9862 9.0674 6.4141 3.1125 -0.5118 -4.1927
-7.5073 -10.0474 -11.6778 -12.4735 -12.2843 -11.2596
-10.0836 -9.2016 -8.4458 -7.6111 -7.2151 -7.9255
-9.2183 -10.3312 -11.1028 -11.7780 -12.4457 -12.5505
-11.9996 -11.2401 -10.7049 -10.3312 -9.9315 -9.6913
-9.6718 -9.7747 -9.4492 -8.5404 -7.4043 -6.0716
-4.4876 -2.2451 0.6234 3.6764 6.8138 9.7463
12.1622 13.9262 15.2765 16.2493 16.3894 15.7392
14.5420 13.0637 11.5121 10.0283 8.9877 8.3905
8.1104 8.0974 8.3116 8.9608 10.0811 11.3776
12.4173 13.3540 14.3667 14.9667 15.0150 14.7061
14.1562 13.2928 12.0945 10.6951 8.9608 6.7128
4.2273 1.9960 0.1755 -1.3993 -2.9156 -4.3002
-5.4196 -6.4629 -7.7381 -9.1756 -10.6826 -12.4299
-14.3255 -16.2953 -18.2855 -19.7731 -20.5586 -20.7664
-20.4223 -19.4531 -17.9034 -16.1942 -14.2977 -12.4280
-11.4245 -11.2289 -11.2910 -11.6889 -12.3668 -13.4621
-14.9941 -16.4808 -17.5621 -18.1232 -18.5953 -18.6583
-18.2262 -17.7263 -16.9983 -15.7351 -13.8710 -12.1414
-10.9070 -10.1929 -9.7691 -9.3879 -9.2655 -9.2683
-9.2766 -9.1208 -8.8519 -8.3093 -6.8264 -4.5320
-2.1894 -0.3549 0.9824 1.7716 1.5017 0.2071
-1.4771 -3.4284 -5.4028 -6.5723 -6.6066 -5.5772
-4.0015 -2.4537 -0.9114 0.6671 2.3123 4.1115
5.8569 7.2248 7.9278 8.0650 8.0075 7.6310
6.9790 6.3558 5.6538 4.8302 4.0429 3.5699
3.8722 5.0565 6.9726 9.1687 11.0031 12.3330
13.2112 13.8614 14.1962 13.8011 12.6001 10.8259
8.6846 5.8689 2.6017 -0.2427 -2.7884 -5.3369
-7.1241 -7.9597 -8.3696 -8.7619 -9.2126 -9.3035
-9.1171 -8.7461 -7.9893 -6.6399 -4.5894 -2.2496
0.1802 2.6036 4.5224 5.6390 6.1861 6.6332
6.8186 6.3920 5.1011 3.0330 1.2431 -0.2927
-1.9092 -3.0944 -3.5581 -3.6231 -3.9950 -4.1693
-3.9588 -3.8308 -3.8011 -4.0163 -4.2203 -4.5060
-4.7888 -4.6478 -4.0469 -2.7847 -1.4427 -0.4569
0.4325 1.4072 2.8531 4.4890 6.0192 7.5856
9.1854 10.5357 11.2656 11.4335 11.0625 10.3920
9.6482 8.9768 8.5752 8.3443 8.1643 8.0957
8.0586 7.8741 7.5560 6.7621 5.4934 3.6998
1.2125 -1.8127 -5.4537 -9.2941 -12.9528 -16.0893
-18.3067 -19.8314 -21.1112 -22.2797 -23.1543 -23.5085
-23.1635 -22.4995 -21.5322 -20.0400 -18.3605 -16.5196
-14.5720 -12.2535 -9.5612 -6.8615 -4.3761 -2.8616
-2.3413 -2.0863 -1.7561 -1.3583 -0.8287 -0.0664
1.1828 3.2259 5.9182 8.8553 11.6839 14.2927
16.4740 17.9041 18.4475 18.2797 17.7074 16.7142
15.3435 13.8949 12.7078 11.6904 10.3216 8.3527
5.6270 2.1872 -1.7032 -5.5863 -8.6829 -10.8076
-12.1978 -13.0696 -13.4786 -13.2597 -12.3638 -10.8401
-9.1874 -7.4773 -5.4741 -3.6165 -2.1261 -0.7888
0.5624 1.8107 2.8698 3.7982 4.5800 5.3126
5.8988 6.1510 6.3059 6.3922 6.0639 5.2644
4.4492 4.2016 4.6635 5.7708 7.4040 9.4192
11.4271 13.0185 14.3874 15.6403 16.8413 18.2630
19.7979 20.8765 21.2419 21.1361 20.8153 20.4174
19.9574 19.5020 18.8464 17.6398 15.6756 13.2365
11.1220 9.5945 8.4668 7.7861 7.6331 7.9002
8.7320 9.9599 11.2166 12.3619 12.9833 12.7190
11.6858 10.2038 8.4965 6.9755 5.2728 2.7577
-0.0125 -2.1734 -3.6387 -4.5651 -4.8925 -5.0140
-5.1281 -5.0131 -4.4390 -3.6043 -2.8151 -2.3078
-2.3282 -2.7539 -3.6507 -4.7413 -5.7476 -6.6091
-6.9940 -6.9486 -6.6731 -6.2280 -5.6706 -4.7107
-3.0674 -0.9371 1.3425 3.6452 5.9684 7.9447
9.3609 10.3977 11.2788 12.0661 12.5929 12.5994
11.8222 10.2030 8.0662 6.0361 4.2917 2.6112
1.0847 -0.4539 -2.0500 -3.2565 -4.1237 -4.9055
-5.7392 -6.3643 -6.5145 -6.5980 -6.5841 -6.1018
-5.1280 -4.0893 -3.4986 -3.1517 -2.9866 -3.0924
-3.5449 -4.3648 -4.9500 -5.1225 -5.0214 -4.5966
-3.8398 -2.6583 -1.3164 -0.2202 1.0726 2.9219
5.2126 7.6044 9.1337 9.5622 8.9501 7.1722
4.7981 2.3395 -0.1070 -2.6806 -5.7401 -9.2021
-12.7597 -16.2866 -19.3341 -21.7407 -23.7105 -25.5004
-27.3960 -29.2880 -31.0816 -32.4523 -32.9596 -32.6915
-32.0220 -31.3412 -30.5956 -29.7331 -28.9513 -28.2696
-27.2949 -25.5570 -23.4935 -21.6359 -19.9888 -18.5476
-17.6870 -17.6833 -18.0384 -18.2833 -18.3732 -18.2944
-17.6424 -16.1252 -13.9384 -11.4752 -9.0370 -6.5015
-3.9455 -1.7272 0.0117 1.6598 3.2410 4.3659
5.1542 5.8044 6.5110 7.1064 7.7352 8.4818
9.3962 10.7475 12.1516 13.7810 15.2074 16.5707
18.5433 20.1393 21.3505 21.9051 21.7234 21.3264
20.1950 18.8428 17.2616 15.5700 13.7959 11.3725
9.1523 7.3624 6.1837 5.4937 4.9002 4.8705
5.2173 5.8035 6.6956 7.9161 9.3285 10.7503
11.8177 12.0533 11.7936 11.3030 10.3969 9.1199
7.6620 5.6708 3.6760 2.3340 1.2619 1.0115
1.4725 1.9390 2.4082 2.7208 3.1158 3.3792
3.6259 3.9969 3.9774 3.7864 3.1084 1.6719
-0.5010 -3.3528 -6.3057 -9.1797 -12.2717 -14.6997
-16.0917 -17.1740 -16.8967 -15.7412 -14.1655 -11.4435
-8.7921 -6.0507 -3.0690 -0.2237 2.2200 3.8773
5.0031 4.8956 4.0739 2.3155 -1.1502 -5.0676
-8.7837 -12.1845 -15.4333 -18.2322 -20.1185 -21.3418
-21.8454 -21.5523 -20.7352 -19.5704 -18.0949 -16.5619
-15.5260 -15.9034 -16.6222 -16.8689 -17.4095 -17.3687
-17.0479 -16.7260 -15.6697 -14.4706 -13.9299 -13.8399
-12.9812 -11.1616 -9.3318 -7.5539 -5.5711 -3.5132
-1.4479 0.1964 1.4021 2.4315 3.2606 4.0656
4.9754 6.0762 7.4590 9.1061 10.7865 12.5328
14.7364 17.3990 20.5605 24.0021 27.4808 30.8251
33.2753 34.7749 35.2145 34.6098 33.3996 31.3982
29.1261 26.7584 24.1709 21.6233 18.9765 16.3121
13.6189 10.8376 8.3113 6.1745 3.9117 1.6590
-0.5798 -2.7620 -4.7197 -6.9956 -8.6019 -9.7398
-11.0122 -11.7282 -12.4358 -13.3113 -14.8461 -16.3476
-16.9050 -17.1016 -16.6481 -16.1751 -15.5398 -14.2989
-12.8095 -10.6440 -8.0510 -5.4079 -2.7471 -0.0669
2.6727 5.5884 9.0403 12.9966 16.8889 20.1775
22.4840 23.7434 24.0560 23.4977 22.1186 20.4159
18.5527 16.1173 13.6282 11.3486 9.1191 7.3079
5.7294 4.1500 2.8897 1.4031 -0.1828 -1.3875
-2.6135 -3.3258 -3.9147 -4.5379 -4.9886 -5.8391
-6.6960 -8.1372 -9.7648 -11.1160 -13.3251 -15.2773
-16.5729 -17.9585 -18.2385 -17.9724 -17.4493 -16.0461
-15.1475 -13.3752 -11.3525 -9.8566 -7.5566 -5.7101
-3.9592 -2.6172 -1.7056 -0.3979 1.2334 3.6085
6.6096 10.1458 14.5074 19.1992 23.6600 27.8575
31.5430 34.9086 37.4831 39.2238 40.3812 40.6010
40.8227 41.0898 41.1538 41.5887 42.2648 43.1245
43.1421 41.6388 39.1969 36.1801 33.1771 29.8802
26.3532 23.0340 19.7195 16.1508 12.2807 8.9810
5.8770 2.7534 -0.0362 -2.6432 -4.8523 -6.7099
-8.1640 -9.3641 -10.2526 -10.8823 -11.3599 -11.3886
-11.0779 -10.3286 -9.0302 -7.7754 -6.8044 -5.8956
-4.9005 -3.6837 -2.6506 -1.8493 -1.1398 -0.5008
0.2643 0.8755 1.2344 1.2668 1.1398 0.8003
0.0408 -0.4758 -0.5945 -0.6279 -1.0637 -1.4811
-1.4041 -1.3132 -0.9719 -0.6408 0.1141 1.1620
1.8233 3.0873 4.2308 5.0182 5.5320 5.2343
5.0470 4.5452 3.7727 2.9408 1.6647 0.3932
-1.0860 -2.4391 -3.5918 -4.6880 -5.2565 -5.2296
-4.4441 -3.0298 -1.2993 0.6427 2.2397 3.2682
3.7922 3.9350 3.9545 3.5882 3.0540 2.4781
1.6369 0.6001 -0.4257 -1.1713 -1.8149 -2.3213
-2.8518 -3.1847 -3.0651 -3.0910 -3.2144 -3.3998
-3.7569 -4.3634 -5.0302 -5.4012 -5.6952 -6.1923
-7.1596 -8.3884 -9.9381 -12.0850 -14.3971 -16.9465
-19.4728 -21.5372 -23.3558 -24.5309 -25.1643 -25.1791
-24.1358 -22.6575 -20.9613 -19.0907 -17.0606 -15.1603
-13.8471 -12.7713 -11.8967 -11.2188 -10.6067 -10.0772
-9.5189 -8.8585 -7.9552 -6.8331 -5.8064 -4.8540
-3.9247 -3.2774 -3.0196 -3.2171 -3.7198 -4.5303
-5.6191 -6.6411 -7.5101 -7.9181 -7.6371 -6.7190
-5.4373 -3.9544 -1.8668 0.8515 3.8702 7.0280
9.8446 11.9127 13.2778 14.1561 14.5948 14.2971
13.5459 12.3718 10.7126 8.6640 5.9133 2.8769
-0.3857 -3.7847 -6.9768 -9.9417 -12.3140 -13.8795
-14.7605 -15.2706 -15.4060 -15.4246 -15.7909 -16.5597
-17.6513 -19.0285 -20.9176 -23.0395 -25.0613 -26.8094
-28.1941 -29.2420 -29.4470 -28.7385 -27.3241 -25.2931
-22.9032 -20.2712 -17.5901 -15.1435 -12.8009 -10.3924
-8.1147 -6.1792 -4.6963 -3.3840 -1.9465 -0.3263
1.5174 3.2414 4.7411 6.1016 7.0494 7.4918
7.3480 7.0160 6.4169 5.3420 4.1336 2.6414
1.2475 -0.0713 -1.3696 -2.5326 -3.6668 -4.4931
-5.2573 -5.9622 -6.8413 -8.0720 -9.3732 -10.9043
-12.6553 -14.5769 -16.4790 -18.2318 -19.6841 -20.6449
-21.1624 -21.1670 -20.7219 -19.7574 -18.1400 -16.0793
-13.8998 -11.6870 -9.5948 -7.5693 -5.3584 -3.2986
-1.6293 -0.3068 0.8951 1.9607 2.7629 3.5067
4.2960 5.1102 5.6370 5.9477 6.4383 7.3434
8.3014 8.8560 9.6666 11.0670 12.8782 14.6329
16.0175 17.3316 18.1042 18.4232 18.6374 18.7877
19.2876 19.6084 19.6326 19.6029 19.3710 19.1781
18.8860 18.6235 18.4603 18.0513 17.4986 16.7780
15.6753 14.0264 11.8868 9.5470 7.1441 4.7838
2.8613 1.4386 0.2553 -0.3346 -0.6582 -0.9624
-0.9216 -1.0097 -0.8734 -0.5599 -0.3457 0.1041
0.2015 0.0698 -0.2464 -1.2221 -2.5696 -4.3855
-6.4406 -8.4188 -10.5212 -12.4168 -14.3171 -16.0541
-17.0919 -17.6113 -17.7569 -17.5250 -16.7497 -15.7064
-14.5675 -13.2404 -11.7389 -9.8312 -7.3875 -4.4967
-1.3157 1.9682 5.0027 7.7905 10.6905 13.6768
16.3051 18.2081 19.5529 20.3541 20.5554 20.3124
19.7532 19.1587 18.8323 18.8870 19.2209 19.9405
20.8605 21.7100 22.4770 22.7580 22.6282 22.0615
20.9690 19.5009 17.3716 15.0614 12.9358 11.0040
9.3440 7.8694 6.7092 5.7456 4.9258 4.2525
3.8648 3.8361 3.9937 4.3740 5.0890 6.0582
6.9661 8.0679 9.8197 11.8563 13.7241 15.2098
16.3404 17.4403 18.2508 18.7340 19.0901 18.8778
17.9170 16.3209 14.3965 12.5389 10.8937 9.5035
8.3990 7.5142 6.9865 6.7519 6.9207 7.5300
7.9074 8.2320 8.1541 7.5309 6.6276 4.9638
3.0487 0.5392 -2.2292 -4.9196 -7.7176 -9.9730
-12.3481 -14.3124 -15.8593 -17.5054 -18.8502 -20.0410
-20.9971 -22.1787 -23.6773 -25.1158 -26.6172 -28.2764
-30.1488 -31.7171 -32.3727 -32.2605 -31.7384 -31.0094
-29.8001 -28.3988 -26.9418 -25.2335 -23.3342 -21.1084
-18.8780 -16.6346 -14.3021 -12.1608 -10.2475 -8.3806
-6.3375 -4.0060 -1.3555 1.3507 3.7471 5.8171
7.4623 8.6095 9.2235 9.4590 9.8717 10.3197
10.8715 11.9269 13.2549 14.7314 16.0817 17.2215
18.1888 18.9251 19.3721 19.2488 18.7480 17.9940
16.8385 15.3583 13.8670 12.1022 9.7039 7.4967
5.1503 2.5276 0.5077 -1.5827 -3.3911 -4.9649
-6.8457 -8.2341 -9.4972 -10.7371 -12.1635 -13.4229
-13.9951 -14.4802 -14.2418 -13.4758 -12.1422 -10.0277
-7.6192 -4.7767 -1.7598 1.3925 4.6347 7.9409
11.2091 14.2603 17.0388 19.5910 21.8057 23.2339
24.2216 24.7706 24.4386 23.8071 23.0438 22.0839
21.1380 20.2449 19.3332 18.0887 16.9479 15.8017
14.6647 14.1601 13.9227 14.0702 14.5014 14.7528
14.6860 13.9932 12.6791 11.1878 9.6548 8.3490
7.4819 6.4766 5.8747 5.3544 4.6060 4.0811
3.2306 2.4256 1.5196 0.8667 0.4224 -0.5949
-1.5780 -2.9774 -4.8666 -6.7696 -8.7997 -10.6564
-12.5316 -14.1713 -15.4001 -16.6419 -17.4116 -18.0005
-18.4485 -18.1526 -17.8262 -17.5433 -17.2623 -17.2994
-17.2113 -17.3476 -18.1174 -19.1190 -20.3153 -21.5358
-22.7210 -24.2262 -25.6795 -26.7747 -27.8162 -28.8327
-29.4633 -29.9057 -30.2970 -30.3592 -30.7812 -30.4148
-29.1851 -28.4812 -26.9268 -24.7892 -22.5198 -20.0278
-17.5034 -14.6210 -11.8713 -9.1985 -6.6954 -4.5262
-2.6296 -0.8026 1.0652 2.7531 4.5254 6.5879
9.0344 11.6905 14.2864 16.7023 18.8112 20.5751
21.8225 22.5756 22.6943 22.0321 20.9730 19.6125
17.9932 16.3628 14.6601 12.8684 11.0673 9.2311
7.2863 5.0336 2.5667 0.2222 -2.0397 -4.3842
-6.5943 -8.4472 -9.9533 -10.8789 -11.2888 -11.4882
-11.3278 -10.7333 -9.9320 -9.3338 -8.9471 -8.3758
-7.4846 -6.4394 -5.6140 -4.7450 -3.5829 -2.4914
-1.4425 -0.4622 0.5988 1.6820 2.6131 3.6073
4.5004 5.0754 5.3490 5.5400 5.4445 5.2544
5.0782 4.7721 4.5950 4.2166 3.8271 3.4088
2.7235 2.0223 0.9976 -0.5410 -2.4941 -4.8544
-7.3083 -9.7409 -12.2477 -14.5838 -16.8569 -18.8713
-20.2846 -21.2974 -21.9920 -22.4882 -22.9352 -23.3673
-24.0731 -25.0422 -25.8333 -26.1542 -25.6664 -24.5730
-22.9602 -20.7901 -18.3454 -15.6466 -12.9692 -10.0979
-6.9355 -3.6868 -0.4464 2.5798 5.5632 8.3223
10.5917 12.4391 14.2429 16.0541 17.8672 19.6719
21.3032 23.0783 24.6799 26.0544 27.1227 27.7682
28.0353 27.8294 27.5456 26.8065 25.5758 24.2673
23.0885 22.1073 21.4257 20.3944 19.5032 19.6154
18.9560 18.2558 17.7902 17.0066 16.7191 15.7147
14.4914 13.1560 11.5080 10.0250 8.2769 6.8310
5.3991 4.0432 2.9971 2.0169 1.5012 1.0932
0.6851 0.8650 1.0106 0.9401 1.1692 1.4706
1.8648 2.1124 2.2394 2.3674 2.4722 2.7282
2.8599 3.0964 3.4646 3.5267 3.6120 3.9338
4.3771 4.8854 5.4149 5.6709 5.5030 5.1358
4.6415 4.1731 3.6371 3.1762 2.8089 2.2515
1.7971 1.5699 1.2740 0.7816 0.3587 -0.3638
-1.1001 -1.5063 -2.3206 -2.9271 -3.4409 -3.8527
-4.0066 -4.1578 -3.6440 -2.9846 -2.0294 -1.0176
-0.5075 -0.1375 0.0378 -0.1875 -0.5548 -0.7876
-1.2865 -1.4266 -1.2151 -1.0111 -0.3906 0.3170
0.9680 1.8064 2.6995 3.6510 4.8251 6.1606
7.4061 8.3706 9.4232 10.3228 10.8978 11.4172
11.7677 12.0766 12.2240 12.1767 12.0942 12.0905
12.1860 12.1906 11.8929 11.4849 11.1102 10.4619
10.1355 10.2663 10.3516 10.4258 10.4109 10.2069
9.5753 8.7741 7.8114 6.6392 5.5402 4.1992
2.6244 0.9551 -0.6735 -2.4865 -4.3803 -6.0014
-7.3582 -8.2318 -9.0220 -9.9058 -11.1921 -12.5712
-13.6971 -14.8869 -15.5417 -16.0703 -16.6861 -17.0237
-17.2843 -17.4466 -17.3557 -16.7111 -15.8190 -14.9212
-13.8658 -12.8142 -11.9925 -11.4462 -11.1532 -11.2051
-11.3303 -11.5770 -11.9090 -12.1946 -12.6055 -12.9913
-13.2472 -13.1712 -12.9477 -12.4784 -11.6391 -10.5976
-9.2909 -8.1085 -7.1412 -6.3167 -5.7695 -5.6304
-6.0218 -6.7665 -7.6503 -8.6621 -9.6526 -10.4863
-11.1355 -11.4323 -11.5195 -11.3182 -10.7108 -9.8427
-8.5360 -6.9418 -5.0925 -3.1097 -1.2410 0.7743
2.8869 5.0422 7.0946 8.8660 10.4490 11.8912
13.2693 14.5250 15.6045 16.5384 17.3165 17.7570
17.8906 17.9518 18.0687 18.2606 18.3626 18.3395
18.1521 17.7543 17.1941 16.5152 15.8243 15.0731
14.0391 12.6470 10.8794 8.9021 7.0019 5.1814
3.5603 2.0662 0.5888 -0.8199 -2.1201 -3.1931
-4.0538 -4.4896 -4.6668 -4.7280 -4.5768 -4.4331
-4.0742 -3.4676 -2.7786 -2.1108 -1.5572 -0.9673
-0.4489 -0.0084 0.4275 0.8949 1.4495 2.0106
2.6245 3.3563 4.0917 4.6908 5.1072 5.2602
5.1656 4.9486 4.6621 4.2540 3.7078 3.2042
2.6561 1.7945 0.8374 -0.0937 -1.0600 -2.0960
-3.2784 -4.4367 -5.5914 -6.6922 -7.6771 -8.6778
-9.4596 -9.9326 -10.4454 -11.0686 -11.6464 -12.1788
-12.5896 -13.0542 -13.6199 -14.0697 -14.4101 -14.7226
-15.0342 -15.3421 -15.7224 -16.0952 -16.5190 -17.0727
-17.7831 -18.6224 -19.3263 -19.7965 -19.8697 -19.4849
-18.5352 -16.9799 -15.2197 -13.3046 -11.0695 -8.4988
-5.9475 -3.7105 -1.6804 0.0316 1.4384 2.4549
3.0419 3.4398 3.7635 4.1224 4.2791 4.1622
3.8924 3.5353 3.1857 2.6905 2.1915 1.6360
0.8811 0.0390 -0.8727 -1.7175 -2.5633 -3.2663
-3.7856 -4.4348 -5.3316 -6.5196 -7.8616 -9.3353
-10.8646 -12.3011 -13.7330 -15.1084 -16.4819 -17.7877
-18.9469 -19.9940 -20.7452 -21.3832 -21.9703 -22.4062
-22.8244 -23.1620 -23.2714 -23.2399 -23.1342 -22.8866
-22.5814 -22.1558 -21.7189 -21.1681 -20.3696 -19.4700
-18.3895 -17.3471 -16.3529 -15.5572 -14.8107 -13.7080
-12.6507 -11.6417 -10.6419 -9.6978 -8.7064 -7.7920
-6.8896 -6.1440 -5.4002 -4.8623 -4.9272 -5.1452
-5.5848 -5.8630 -5.9956 -6.3721 -6.4955 -6.6856
-6.8980 -7.1827 -7.7391 -8.2001 -8.7602 -9.1293
-9.2796 -9.4734 -9.5912 -9.6700 -9.6589 -9.7173
-9.6922 -9.4372 -8.9271 -8.1583 -7.2226 -6.0698
-4.9114 -3.6121 -2.3119 -1.2027 -0.2633 0.4045
1.0110 1.3764 1.6936 2.2018 2.9428 4.1661
5.6638 7.5641 9.8622 12.4831 15.5676 19.0389
22.7801 26.4907 30.0492 33.3016 36.0374 38.2549
39.8927 41.0019 41.5759 41.5518 41.2411 40.9305
40.6717 40.3842 40.0160 39.7193 39.3761 38.8846
38.3588 37.8515 37.0938 35.7824 33.9712 31.6610
29.0847 26.1216 22.9934 20.1463 17.2685 14.8063
12.6139 10.4706 8.6195 6.7684 4.9748 3.0857
1.2151 -0.5702 -2.2033 -3.5101 -4.7639 -5.9510
-6.9545 -7.6528 -8.0664 -8.4392 -8.7221 -8.6284
-8.3511 -8.1425 -8.0720 -8.2927 -8.6043 -9.0838
-9.8777 -10.6344 -11.1788 -11.4765 -11.4682 -11.1603
-10.5584 -9.6569 -8.5041 -7.3291 -6.3832 -5.5040
-4.4013 -3.3385 -2.4500 -1.6728 -0.9634 -0.0972
0.9870 2.3354 3.6885 5.0351 6.3548 7.4427
8.4656 9.3105 10.0348 10.5523 10.7554 10.6858
10.3102 9.7297 8.9915 8.4146 7.9824 7.5790
7.1932 6.7258 6.1888 5.6658 5.2930 5.0147
4.9702 5.2216 5.6621 6.1870 6.7045 7.2211
7.7432 8.3052 8.6270 8.6623 8.6743 8.7615
8.7485 8.5436 8.3581 8.2700 8.6558 9.3458
9.9977 10.8918 11.8090 12.6344 13.2427 13.3355
13.1166 12.6817 11.9462 10.9381 9.6908 8.3293
6.8381 5.2049 3.6060 2.1760 0.8702 -0.3902
-1.5327 -2.5872 -3.5545 -4.4606 -5.4631 -6.5083
-7.3977 -8.0756 -8.6589 -9.2571 -9.8284 -10.3468
-10.8857 -11.4467 -11.9911 -12.4771 -12.8647 -13.1189
-13.2338 -13.3182 -13.2960 -13.0604 -12.8128 -12.5541
-12.2628 -11.9262 -11.4254 -10.7799 -9.9443 -9.0030
-7.8113 -6.3311 -4.8241 -3.6036 -2.7624 -2.0048
-1.3945 -1.0152 -1.0801 -1.3240 -1.4418 -1.8109
-2.2023 -2.3739 -2.2069 -1.8341 -1.3658 -0.7156
-0.0933 0.3555 0.4130 0.3574 0.2350 -0.2000
-0.7435 -1.3398 -1.7005 -2.0446 -2.5927 -2.7902
-2.6576 -2.3581 -1.9472 -1.3481 -0.7731 -0.5385
-0.3076 -0.3855 -0.8037 -1.1190 -1.2572 -1.3518
-1.6096 -1.6597 -1.4872 -1.2785 -0.9948 -0.6692
-0.2037 0.2925 0.9203 1.7773 2.5127 3.1313
3.9966 5.1076 6.0146 6.5423 6.9958 7.3269
7.1563 6.3986 5.4322 4.4677 3.2463 1.8199
0.4492 -0.9103 -2.1892 -3.1333 -3.6601 -4.0264
-4.4150 -4.5356 -4.5207 -4.6543 -4.9325 -5.4240
-6.0732 -6.9385 -7.9429 -9.1290 -10.3569 -11.2741
-12.0921 -12.6857 -12.9917 -13.3636 -13.8431 -14.2502
-14.3745 -14.3902 -14.5720 -14.8317 -14.9374 -14.8326
-14.6406 -14.2455 -13.5676 -12.7802 -12.0327 -11.3372
-10.5786 -9.7105 -8.8684 -8.1330 -7.4921 -7.1137
-6.8606 -6.7938 -6.7752 -6.4571 -6.0009 -5.3109
-4.7210 -4.2508 -3.7426 -3.2177 -2.6557 -2.3941
-2.1901 -1.9258 -1.6402 -1.3962 -1.4185 -1.5048
-1.5020 -1.5252 -1.7969 -2.2244 -2.4795 -2.5481
-2.5796 -2.6278 -2.6065 -2.7020 -2.8393 -2.7874
-2.6751 -2.3895 -2.0974 -1.8395 -1.4445 -0.9399
-0.2231 0.5773 1.4463 2.3162 3.2659 4.4956
5.7068 6.7427 7.6423 8.4315 8.9472 9.1252
9.2217 9.3061 9.4137 9.4591 9.5797 9.7169
9.6353 9.6975 9.6038 9.3942 9.2384 8.9518
8.9055 8.7515 8.5920 8.5382 8.3991 8.2897
7.9493 7.3502 6.5638 5.8960 5.1198 4.0523
2.7187 1.1329 -0.2592 -1.7143 -3.2121 -4.6366
-5.8524 -6.6796 -7.3863 -7.6562 -7.4624 -7.0293
-6.4459 -5.8923 -5.2774 -4.7080 -4.1497 -3.6043
-3.1453 -2.6370 -1.9767 -0.8870 0.4781 1.9286
3.4449 4.9158 6.3561 7.7296 9.1012 10.3467
11.5264 12.6931 13.5222 14.0972 14.4588 14.5980
14.6137 14.4078 14.0257 13.5899 13.2430 12.9833
12.9258 13.0965 13.3089 13.6418 14.0007 14.5015
15.0886 15.3900 15.5328 15.4002 14.7195 13.5129
12.0179 10.3996 8.5754 6.6148 4.7155 2.9924
1.6170 0.8788 0.3993 0.1628 0.2658 0.3799
0.5347 0.5904 0.8501 1.1005 1.3193 1.6857
1.9843 2.5278 2.9970 3.3893 3.8196 4.1785
4.5885 5.0225 5.5558 6.2504 7.1565 7.9698
8.8490 9.9202 10.6695 11.2417 11.5459 11.5969
11.6414 11.3790 10.7502 9.9489 9.0818 7.8966
6.3162 4.4707 2.5816 0.8612 -0.7460 -2.2150
-3.7842 -5.4396 -6.8075 -7.8842 -8.7421 -9.2457
-9.2726 -9.0129 -8.7171 -8.3155 -7.9167 -7.5763
-7.1080 -6.6879 -6.2112 -5.6241 -5.0501 -4.3406
-3.6070 -2.8744 -1.9896 -1.0817 -0.2275 0.6257
1.4437 2.2626 3.1714 4.2380 5.1236 5.7543
6.3664 6.7086 6.6780 6.5825 6.5120 6.3358
6.1558 5.9778 5.8415 5.6244 5.3147 5.2238
5.2349 5.2572 5.3082 5.5299 6.0001 6.3107
6.3840 6.3738 6.2004 5.8860 5.4983 5.0365
4.4735 3.7965 2.9739 2.1532 1.2647 0.3160
-0.5975 -1.6529 -2.7000 -3.7312 -4.7189 -5.6000
-6.3901 -7.1005 -7.6746 -7.8267 -7.6950 -7.4316
-7.1098 -6.7305 -6.2612 -5.8133 -5.4404 -5.2188
-5.0676 -5.0083 -5.0166 -5.1047 -5.3681 -5.6417
-5.9283 -6.1638 -6.2964 -6.3938 -6.4207 -6.4226
-6.3437 -6.2371 -6.1666 -5.9876 -5.6556 -5.3328
-4.9851 -4.5900 -4.3377 -4.1856 -4.2691 -4.4537
-4.7949 -5.4488 -6.1925 -7.0606 -7.8266 -8.7262
-9.4848 -10.0172 -10.4317 -10.3650 -10.1897 -9.5461
-8.9683 -8.4740 -7.5762 -6.9270 -5.9866 -5.0277
-4.3442 -3.8740 -3.8564 -3.7720 -3.7136 -3.6570
-3.5568 -3.5151 -3.4548 -3.3509 -3.0495 -2.6888
-2.2696 -1.9236 -1.5638 -0.8701 -0.3090 0.1213
0.5683 0.9532 1.3687 1.6738 1.9075 2.0429
2.2256 2.3879 2.2599 1.8658 1.2954 0.6740
0.0174 -0.6067 -1.3431 -2.1017 -2.7129 -3.3565
-3.8452 -4.1132 -4.2338 -4.1448 -4.0196 -3.9565
-4.0798 -4.2848 -4.4128 -4.7402 -5.2168 -5.6945
-6.3028 -7.0262 -7.8952 -8.7540 -9.2158 -9.3633
-9.3058 -8.9580 -8.4720 -7.7876 -6.9353 -6.0311
-5.0851 -4.2097 -3.2711 -2.3586 -1.4404 -0.5232
0.3727 1.2444 1.9762 2.7116 3.2634 3.8338
4.3763 4.8567 5.3983 5.8184 6.2571 6.6086
7.1001 7.7048 8.2696 8.9475 9.7256 10.4778
11.0648 11.5294 11.7094 11.7585 11.5869 11.0926
10.4740 9.7655 9.1135 8.4171 7.7883 7.2680
6.8349 6.4463 5.9956 5.7563 5.5912 5.3854
5.2880 5.2379 5.5087 5.9242 6.3109 6.7867
7.1057 7.5778 7.8616 7.7948 7.6909 7.3088
6.9221 6.5113 6.1486 5.9233 5.6451 5.7183
5.9724 6.1338 6.3916 6.3953 6.1783 5.8268
5.2435 4.6518 4.1139 3.7671 3.5194 3.4072
3.4925 3.6799 4.0833 4.4756 4.7937 5.1257
5.3696 5.5347 5.4846 5.2685 4.8744 4.2419
3.5204 2.6653 1.8464 1.0563 0.3088 -0.3488
-1.1148 -1.8298 -2.5847 -3.2785 -3.6281 -3.7876
-3.5817 -3.1328 -2.5514 -1.7232 -1.0304 -0.3358
0.3338 0.8022 1.2000 1.4059 1.6201 1.8223
1.9809 2.0922 2.1868 2.3816 2.4038 2.5003
2.7766 3.1420 3.6540 4.0212 4.2781 4.4070
4.2735 3.9888 3.6095 3.2635 2.7303 1.9856
1.2381 0.4692 -0.2532 -1.1166 -2.0051 -2.8240
-3.6772 -4.5211 -5.4764 -6.4335 -7.3924 -8.4413
-9.4976 -10.4566 -11.1345 -11.4071 -11.3728 -11.1187
-10.7014 -10.2572 -9.9094 -9.7740 -9.7805 -9.8982
-10.0587 -10.4501 -10.9175 -11.2050 -11.5787 -11.7809
-12.0192 -12.1546 -11.8059 -11.2736 -10.4686 -9.4781
-8.1065 -6.3676 -4.7214 -3.2107 -1.8873 -0.6037
0.4693 1.1611 1.5840 1.5980 1.3615 0.8375
0.0789 -0.7975 -1.7509 -2.5643 -3.3720 -4.0045
-4.5498 -5.2139 -5.7063 -5.9938 -6.0680 -6.0318
-6.0921 -6.3101 -6.5326 -6.5985 -6.7200 -6.9073
-7.1531 -7.5899 -8.1380 -8.8011 -9.3473 -9.6404
-9.6385 -9.1906 -8.5312 -7.8440 -7.1809 -6.3694
-5.4253 -4.4376 -3.2774 -2.0560 -0.6983 0.4480
1.1630 1.8029 2.2194 2.4772 2.6385 2.6923
2.8120 2.8954 3.0958 3.3248 3.5845 3.9879
4.3394 4.6946 5.0452 5.3772 5.7139 6.0078
6.3380 6.6459 6.7433 6.6329 6.3269 5.9068
5.3818 4.6316 3.7190 2.7341 1.8531 1.0620
0.3488 -0.2002 -0.6287 -0.8986 -1.1647 -1.2816
-1.2343 -1.0117 -0.5230 -0.1715 0.3275 0.8802
1.3254 1.9959 2.7425 3.6458 4.6826 5.8113
6.9835 8.1456 9.2455 10.1237 10.9157 11.5603
11.9943 12.3885 12.6871 12.9282 13.3085 13.8269
14.5011 15.1215 15.5157 15.7513 15.8013 15.5686
14.9843 14.2962 13.5867 12.8355 12.1344 11.5186
11.0669 10.6987 10.3936 10.0894 9.7676 9.4616
9.1082 8.7030 8.1864 7.5817 6.8685 5.9328
4.8255 3.6940 2.6414 1.6129 0.5965 -0.3281
-1.1508 -1.8185 -2.3332 -2.6587 -2.7941 -2.8368
-2.8720 -2.9369 -2.8943 -2.7051 -2.4120 -2.0791
-1.8862 -1.8268 -1.9659 -2.3879 -2.9091 -3.5666
-4.2047 -4.6934 -5.1201 -5.5782 -6.0298 -6.2867
-6.5798 -6.7885 -7.0129 -7.2837 -7.3672 -7.4043
-7.3477 -7.3718 -7.3532 -7.2466 -7.2893 -7.1984
-7.0277 -6.8970 -6.8163 -7.0500 -7.3727 -7.6992
-8.0562 -8.3140 -8.5635 -8.5162 -8.1925 -7.8142
-7.1956 -6.3934 -5.3380 -3.9793 -2.5019 -0.9541
0.4880 1.7419 2.7611 3.7136 4.6261 5.3022
5.8809 6.3029 6.5218 6.5885 6.5459 6.5264
6.5756 6.6414 6.7471 6.8760 7.0022 7.1932
7.2563 7.1005 6.7648 6.2306 5.6213 5.0491
4.5733 4.0781 3.3454 2.6619 2.0860 1.3932
0.7932 0.0262 -0.7871 -1.4623 -2.4027 -3.3746
-4.3558 -5.3453 -6.2959 -7.4237 -8.3186 -9.0476
-9.6661 -10.0343 -10.3265 -10.3255 -10.2022 -9.8507
-9.4436 -9.1533 -8.6988 -8.2991 -7.8178 -7.4422
-6.9915 -6.3191 -5.7469 -5.2396 -4.9159 -4.6349
-4.5162 -4.4912 -4.5338 -4.6952 -4.8362 -5.1125
-5.4297 -5.7933 -6.0613 -6.2180 -6.4350 -6.6270
-6.9034 -7.1834 -7.4218 -7.7389 -8.0784 -8.4697
-8.9705 -9.6633 -10.4340 -11.1806 -11.8947 -12.4808
-12.9927 -13.4796 -14.0027 -14.5118 -14.9458 -15.3409
-15.7286 -16.0810 -16.4696 -16.9407 -17.4638 -17.9998
-18.2446 -18.4032 -18.4422 -18.2335 -18.0777 -17.7883
-17.3849 -16.8832 -16.3434 -15.8343 -15.0451 -13.9999
-12.8387 -11.6146 -10.2800 -8.7906 -7.3234 -5.8730
-4.2852 -2.5723 -0.8241 0.7664 2.0805 3.1832
4.1588 5.0603 5.9339 6.8196 7.7479 8.7263
9.7150 10.5951 11.3194 11.9380 12.4211 12.7188
12.7689 12.7235 12.7105 12.7022 12.7235 12.8042
12.9683 13.0082 12.8320 12.5232 12.2793 12.1652
12.0799 12.0660 11.9704 11.7840 11.5281 11.1905
10.8668 10.4782 10.0804 9.7187 9.3524 8.9907
8.6012 8.1783 7.7452 7.3965 7.2175 7.2230
7.4224 7.7906 8.2543 8.6856 9.0992 9.4581
9.7067 9.9051 10.0303 10.1073 10.0971 10.0238
9.8263 9.5397 9.2457 8.8776 8.6624 8.5604
8.4751 8.4751 8.4853 8.5604 8.6810 8.7895
8.8034 8.6606 8.4862 8.3369 8.2562 8.2293
8.1162 7.9149 7.7063 7.4503 7.1563 6.8076
6.3513 5.8097 5.1494 4.4409 3.7008 2.9218
2.2336 1.7096 1.4277 1.2821 1.1884 1.2042
1.2988 1.5177 1.7875 2.0407 2.2411 2.2568
2.0370 1.5835 0.9547 0.2165 -0.5532 -1.3851
-2.2736 -3.1945 -4.0171 -4.6310 -5.0966 -5.3071
-5.3340 -5.2626 -5.0743 -4.8481 -4.6728 -4.5207
-4.3472 -4.2211 -4.1599 -4.1729 -4.1701 -4.1432
-4.1738 -4.2035 -4.2907 -4.3955 -4.4502 -4.5216
-4.6496 -4.9667 -5.4713 -6.0935 -6.8206 -7.6423
-8.4909 -9.3042 -10.1426 -10.9828 -11.7350 -12.3767
-12.8915 -13.3023 -13.6445 -13.9255 -14.2297 -14.5441
-14.8344 -15.2053 -15.6570 -16.0790 -16.4518 -16.7615
-16.9962 -17.2020 -17.3170 -17.3254 -17.1891 -16.9043
-16.5872 -16.2626 -15.9751 -15.6570 -15.2943 -14.9920
-14.6405 -14.1462 -13.5601 -12.9332 -12.2450 -11.4308
-10.4802 -9.4962 -8.5595 -7.5477 -6.4858 -5.3905
-4.2266 -3.1063 -1.9906 -0.9603 -0.0357 0.8231
1.5345 2.1521 2.6900 3.1750 3.6415 3.9875
4.2462 4.5356 4.8231 5.0948 5.3285 5.5557
5.7876 5.8673 5.7876 5.6772 5.6577 5.6837
5.7644 6.0324 6.4210 6.9385 7.3799 7.6832
7.9466 7.9967 7.9216 7.6776 7.3317 6.8968
6.4525 6.0436 5.5576 5.2720 5.0253 4.8778
4.8741 4.8500 4.9251 4.9928 5.1208 5.2423
5.4250 5.7589 6.0899 6.5212 6.9432 7.3892
7.8678 8.2332 8.6032 8.9093 9.1179 9.2394
9.2812 9.3377 9.4166 9.6169 9.7792 9.8460
9.9879 10.0426 10.0185 9.8487 9.4954 9.1180
8.5402 7.9058 7.3568 6.8384 6.3524 5.8080
5.2163 4.5690 3.8614 3.1139 2.4499 1.8610
1.2535 0.5812 -0.1088 -0.8591 -1.6418 -2.3448
-2.9810 -3.5032 -4.1653 -4.8507 -5.5722 -6.2854
-6.7240 -7.0690 -7.1785 -7.1748 -7.0811 -6.7862
-6.4922 -6.1147 -5.6492 -5.2634 -5.0371 -5.0714
-5.3171 -5.5527 -5.7011 -5.6788 -5.4256 -4.9796
-4.3415 -3.5931 -2.6889 -1.6325 -0.6133 0.3707
1.4177 2.4768 3.4376 4.2890 5.0504 5.7274
6.3506 6.8950 7.3773 7.9291 8.5736 9.1366
9.6095 9.9035 9.8729 9.5697 9.0373 8.3334
7.4849 6.6242 5.7923 5.0476 4.4819 3.9792
3.6129 3.4126 3.2800 3.1168 2.8756 2.7161
2.6048 2.5269 2.5241 2.5139 2.5696 2.5696
2.5427 2.6067 2.7319 2.9526 3.1919 3.5564
3.9403 4.1731 4.4300 4.7833 5.2461 5.7618
6.3609 7.1111 7.8744 8.5672 9.2349 9.9305
10.6409 11.3244 12.0329 12.7285 13.4222 14.0973
14.6408 15.1536 15.5784 15.9549 16.2758 16.4177
16.5717 16.6032 16.5114 16.3704 16.1126 15.8826
15.5228 14.9765 14.3830 13.7412 13.0967 12.4892
11.9931 11.6369 11.3791 11.1779 11.0026 10.8607
10.6724 10.3664 9.9463 9.3805 8.6275 7.6723
6.6178 5.5522 4.4208 3.2652 2.1839 1.1897
0.3021 -0.4296 -0.9647 -1.3218 -1.5777 -1.8365
-2.1110 -2.3948 -2.8019 -3.3240 -3.9278 -4.6511
-5.4357 -6.2565 -7.0207 -7.7162 -8.4350 -9.0740
-9.6230 -10.0904 -10.4595 -10.7637 -10.9687 -11.0484
-10.9863 -10.9269 -10.8741 -10.7628 -10.6830 -10.5689
-10.4011 -10.1590 -9.8381 -9.4115 -8.8170 -8.1104
-7.3490 -6.6182 -5.9467 -5.3699 -4.9377 -4.6928
-4.6168 -4.6947 -4.9609 -5.2697 -5.5127 -5.7325
-5.9161 -6.0385 -6.0812 -6.0404 -6.0719 -6.1257
-6.1989 -6.3659 -6.5532 -6.9603 -7.3499 -7.6605
-8.1066 -8.5369 -8.9932 -9.4273 -9.9077 -10.4585
-10.9862 -11.4926 -11.8960 -12.2948 -12.6658 -12.8893
-12.9755 -12.8679 -12.6964 -12.5452 -12.3347 -12.1288
-11.9201 -11.7560 -11.6187 -11.4490 -11.3535 -11.2932
-11.2774 -11.2199 -11.0279 -10.7506 -10.2814 -9.6684
-9.0071 -8.3255 -7.6753 -7.1653 -6.8333 -6.5634
-6.3937 -6.2564 -6.1433 -6.0941 -6.0477 -5.9939
-6.0283 -6.2174 -6.3964 -6.6645 -6.9640 -7.3109
-7.7050 -7.9971 -8.2652 -8.2327 -8.0083 -7.7096
-7.2849 -6.7553 -6.0533 -5.3438 -4.6529 -4.1187
-3.8368 -3.6847 -3.7301 -3.9035 -3.9861 -4.0287
-3.9601 -3.7551 -3.4241 -2.8880 -2.2676 -1.5822
-0.8041 0.1446 1.1852 2.1775 3.1068 3.9340
4.6936 5.3251 5.7564 6.0411 6.2581 6.3750
6.3796 6.3230 6.2609 6.2674 6.3036 6.3963
6.4937 6.6133 6.9129 7.3358 7.8254 8.3225
8.8447 9.3816 9.7925 10.0568 10.1746 10.1514
9.8537 9.2898 8.6434 7.8811 7.0084 6.0736
5.1833 4.3746 3.6234 2.9779 2.5272 2.2619
1.9615 1.6573 1.3874 1.1296 0.8792 0.5982
0.3951 0.2476 0.1243 0.0046 -0.1308 -0.1920
-0.1614 -0.0825 0.0148 0.0872 0.1048 0.1196
0.1011 0.2263 0.5806 0.9812 1.4941 2.0904
2.7201 3.3693 3.9981 4.6352 5.2204 5.7388
6.2035 6.6134 7.0075 7.4295 7.9062 8.5025
9.1536 9.8129 10.5632 11.3478 12.1315 12.8632
13.4911 14.1050 14.5808 14.8850 15.0825 15.1094
15.0779 14.9721 14.8618 14.8015 14.7505 14.7644
14.8052 14.9647 15.0547 15.0324 15.0946 15.1298
15.1919 15.2161 15.1530 15.1103 14.9610 14.6698
14.2803 13.7777 13.1424 12.4793 11.8737 11.2755
10.7951 10.4316 10.0838 9.7156 9.1851 8.5563
7.8478 6.9491 6.0162 5.0637 4.1020 3.1625
2.2221 1.3782 0.3812 -0.5054 -1.1286 -1.8714
-2.4279 -2.9676 -3.5649 -3.9776 -4.5099 -5.2110
-5.8704 -6.4352 -7.0872 -7.7373 -8.4607 -9.3445
-10.3517 -11.5304 -12.7416 -14.2088 -15.7575 -17.3722
-19.1519 -20.7386 -22.2327 -23.5422 -24.7015 -25.6595
-26.3346 -26.9189 -27.3140 -27.6135 -27.7118 -27.6191
-27.4698 -27.1721 -26.7455 -26.1371 -25.4295 -24.5800
-23.5060 -22.2883 -20.9566 -19.5478 -18.0158 -16.4818
-15.0146 -13.5707 -12.2241 -10.9053 -9.6106 -8.3540
-7.1085 -5.8055 -4.3930 -3.0844 -1.9085 -0.7566
0.3154 1.2429 1.9468 2.4810 2.8640 3.0689
3.1190 2.9985 2.7852 2.4865 2.0952 1.6509
1.0834 0.4091 -0.2929 -1.0293 -1.7768 -2.5382
-3.3617 -4.1890 -4.8780 -5.4530 -5.9418 -6.3628
-6.7421 -7.0046 -7.2132 -7.3941 -7.5211 -7.5443
-7.4859 -7.4414 -7.3894 -7.3236 -7.2151 -7.0611
-6.8599 -6.6336 -6.4778 -6.3665 -6.2524 -6.1634
-6.0530 -5.8778 -5.6264 -5.3807 -5.1247 -4.8298
-4.5237 -4.1426 -3.7540 -3.3227 -2.8933 -2.5446
-2.2117 -1.9455 -1.6942 -1.4642 -1.3158 -1.2045
-1.0867 -0.9764 -0.9050 -0.8243 -0.7232 -0.6573
-0.6462 -0.6787 -0.7139 -0.6991 -0.5924 -0.4116
-0.2428 -0.0990 -0.0137 -0.0471 -0.1575 -0.3364
-0.4913 -0.6128 -0.7139 -0.5961 -0.3058 -0.0211
0.3035 0.7310 1.1975 1.6213 2.0136 2.4078
2.7101 2.8502 2.8900 2.8585 2.7964 2.6786
2.5376 2.4430 2.3215 2.1908 2.0563 1.9255
1.7707 1.5564 1.3923 1.2634 1.2374 1.3941
1.6260 1.9246 2.2641 2.5877 2.9021 3.1469
3.3157 3.4363 3.5170 3.6032 3.6811 3.6988
3.6274 3.5281 3.4549 3.3742 3.3120 3.2675
3.2657 3.3612 3.4957 3.6413 3.8119 4.0299
4.2960 4.5872 4.9276 5.3078 5.7409 6.2102
6.6730 7.1163 7.5141 7.9408 8.3674 8.7921
9.2401 9.6370 10.0163 10.3270 10.6015 10.9242
11.2461 11.5948 11.9203 12.1642 12.3562 12.4600
12.5417 12.6567 12.7262 12.7355 12.7457 12.7197
12.6279 12.4916 12.2829 11.9963 11.6421 11.2795
10.9215 10.6284 10.4290 10.3354 10.3335 10.3576
10.4411 10.4383 10.3205 10.1406 9.9032 9.6463
9.2642 8.7680 8.2849 7.8471 7.4317 7.0635
6.7890 6.5849 6.3559 6.0257 5.5731 5.0779
4.4946 3.8120 3.1545 2.5767 2.1770 1.9321
1.8347 1.8236 1.7949 1.7782 1.7012 1.5649
1.3219 0.9815 0.6467 0.3092 0.0495 -0.1610
-0.3382 -0.4133 -0.3372 -0.2083 -0.1313 -0.0711
-0.1239 -0.3242 -0.6349 -1.0458 -1.5187 -1.9203
-2.1883 -2.3172 -2.2848 -2.1939 -2.0390 -1.8637
-1.7061 -1.4241 -1.1478 -0.9697 -0.7879 -0.7119
-0.6275 -0.5487 -0.5524 -0.4605 -0.3873 -0.3214
-0.2714 -0.1990 -0.0015 0.1627 0.3287 0.5003
0.6755 0.7701 0.7488 0.7126 0.6375 0.5170
0.2322 -0.1536 -0.6210 -1.1617 -1.7181 -2.3562
-2.8774 -3.3865 -3.9021 -4.3677 -4.8769 -5.2469
-5.6318 -5.9879 -6.3115 -6.7363 -7.1342 -7.5747
-8.0337 -8.5438 -9.1179 -9.7513 -10.4125 -11.0163
-11.6135 -12.1635 -12.5660 -12.8062 -12.9453 -12.9778
-12.9240 -12.7802 -12.5567 -12.2748 -11.8908 -11.4540
-10.9579 -10.4682 -9.9971 -9.5222 -9.1206 -8.6820
-8.3147 -7.9401 -7.5542 -7.3567 -7.1351 -7.0590
-6.9811 -6.7530 -6.6686 -6.4924 -6.2466 -6.0973
-5.9433 -5.7894 -5.5677 -5.2626 -4.9927 -4.7377
-4.3936 -4.0727 -3.8882 -3.7964 -3.8798 -4.0495
-4.3018 -4.7451 -5.2385 -5.7439 -6.1983 -6.6296
-7.0877 -7.4995 -7.8519 -8.1199 -8.3824 -8.5929
-8.6393 -8.4714 -8.1190 -7.6766 -7.1573 -6.6249
-6.1158 -5.6428 -5.2848 -5.0530 -4.8638 -4.8953
-5.0140 -5.0641 -5.2598 -5.3460 -5.3961 -5.3739
-5.1457 -4.9064 -4.4845 -3.9976 -3.3910 -2.6909
-2.0853 -1.4899 -1.0039 -0.4827 0.0181 0.3325
0.5931 0.8111 0.9910 1.2265 1.4890 1.7932
2.1428 2.4312 2.7623 3.1583 3.5720 4.0459
4.6125 5.2543 5.9192 6.5768 7.1351 7.6498
8.1135 8.4668 8.7803 9.0131 9.1735 9.3312
9.5083 9.7476 10.0119 10.3384 10.6611 10.9486
11.3251 11.6646 12.0225 12.4186 12.7719 13.0659
13.1364 13.1002 12.9592 12.5975 12.0801 11.4476
10.7863 10.1501 9.6224 9.2255 8.9612 8.8768
8.8638 8.8944 9.0168 9.2496 9.6438 10.0073
10.2577 10.4738 10.5925 10.6175 10.4803 10.2484
10.0008 9.6883 9.3674 9.0048 8.6820 8.3612
8.0254 7.7148 7.2946 6.8504 6.3283 5.8804
5.4871 5.0550 4.8500 4.5996 4.3770 4.2528
4.0784 4.0172 3.9968 4.0988 4.3056 4.5134
4.7693 5.0207 5.3035 5.5780 5.8461 6.1512
6.4108 6.7011 6.9506 7.0934 7.2548 7.3605
7.4588 7.4273 7.2529 7.0146 6.5676 6.0770
5.4204 4.6618 3.9375 3.0944 2.3256 1.5874
0.8891 0.2668 -0.3722 -1.0028 -1.6919 -2.4357
-3.2370 -4.0735 -4.9963 -5.9042 -6.6740 -7.3862
-7.9343 -8.4787 -8.8905 -9.0889 -9.3690 -9.5424
-9.7937 -10.1100 -10.4068 -10.8260 -11.0940 -11.3778
-11.5734 -11.5373 -11.5252 -11.4455 -11.3638 -11.3258
-11.2312 -11.1654 -11.0893 -10.9530 -10.7916 -10.5524
-10.2176 -9.7724 -9.2456 -8.6957 -8.0938 -7.4761
-6.8501 -6.2167 -5.6287 -5.0797 -4.5743 -4.1226
-3.6923 -3.2592 -2.8242 -2.3169 -1.8236 -1.3997
-0.9657 -0.5242 -0.0244 0.4347 0.9086 1.5216
2.2227 3.0212 3.8902 4.8881 5.9296 6.8885
7.7612 8.4958 9.1329 9.6253 9.9045 9.9527
9.7821 9.4519 8.9697 8.4271 7.8466 7.2438
6.6539 6.0771 5.6607 5.3769 5.1988 5.1905
5.2841 5.4233 5.5457 5.6700 5.7933 5.8499
5.8313 5.7701 5.6607 5.4576 5.2248 5.0096
4.7899 4.5895 4.3855 4.2297 4.1397 4.0637
4.0155 3.9923 4.0238 4.0498 4.0989 4.2065
4.2993 4.3855 4.4208 4.3920 4.2158 3.8736
3.4859 3.0102 2.4843 1.9650 1.4206 0.8948
0.4227 -0.0262 -0.4834 -0.9155 -1.3245 -1.6769
-1.9570 -2.2158 -2.4383 -2.6136 -2.7156 -2.8575
-3.0968 -3.3231 -3.5726 -3.8295 -4.0502 -4.2162
-4.3108 -4.3321 -4.2894 -4.1587 -3.9027 -3.6254
-3.3314 -3.0328 -2.7536 -2.4940 -2.3614 -2.3790
-2.5338 -2.7815 -3.0810 -3.3435 -3.5067 -3.5911
-3.6180 -3.6013 -3.5633 -3.6096 -3.7098 -3.8814
-4.1225 -4.3822 -4.6947 -4.9321 -5.1352 -5.3022
-5.3773 -5.4450 -5.4079 -5.2910 -5.1102 -4.8199
-4.5602 -4.3367 -4.2050 -4.1939 -4.2505 -4.4369
-4.6808 -4.9655 -5.3225 -5.7297 -6.1656 -6.5884
-7.0123 -7.3879 -7.6661 -7.8340 -7.9137 -7.9276
-7.8228 -7.6726 -7.5529 -7.4648 -7.4277 -7.4175
-7.4593 -7.5706 -7.6846 -7.8024 -7.9443 -8.0658
-8.1771 -8.2995 -8.4182 -8.4970 -8.5508 -8.5944
-8.6139 -8.6621 -8.7113 -8.8374 -9.0637 -9.2918
-9.5580 -9.8501 -10.0885 -10.2452 -10.3760 -10.4947
-10.6032 -10.6245 -10.5494 -10.4149 -10.1562 -9.7861
-9.3354 -8.8494 -8.3458 -7.8117 -7.2663 -6.7238
-6.1683 -5.6211 -5.1463 -4.6668 -4.1873 -3.7774
-3.4352 -3.1885 -2.9808 -2.7869 -2.5597 -2.3047
-2.0673 -1.7900 -1.4886 -1.1120 -0.7188 -0.3488
0.0194 0.3366 0.6232 0.8040 0.9487 1.0711
1.0934 1.0238 0.8995 0.7623 0.6139 0.5100
0.4785 0.5481 0.7224 0.9524 1.1824 1.3753
1.5756 1.8158 2.0477 2.2786 2.5670 2.9111
3.2348 3.5204 3.8116 4.0759 4.3755 4.6686
4.9356 5.2760 5.6201 5.9604 6.3082 6.6708
7.0474 7.4202 7.7930 8.1463 8.4932 8.8159
9.1164 9.4058 9.6655 9.8750 10.0466 10.2330
10.3833 10.5140 10.6606 10.7886 10.8998 10.9926
11.0668 11.0937 11.1206 11.1465 11.1336 11.1512
11.2013 11.2504 11.3144 11.3283 11.3237 11.3534
11.3599 11.4238 11.5082 11.5685 11.6167 11.6214
11.6334 11.6028 11.5453 11.5120 11.4192 11.2254
10.9212 10.5076 10.0188 9.5023 9.0256 8.6472
8.3412 8.1047 7.9572 7.8626 7.8302 7.8487
7.9201 8.0416 8.1779 8.3189 8.4070 8.3875
8.2336 7.9433 7.5473 7.0799 6.5374 5.9902
5.3809 4.7224 4.0788 3.3489 2.6589 1.9801
1.3392 0.7679 0.2616 -0.1196 -0.4915 -0.7845
-1.1305 -1.5413 -1.9846 -2.5336 -3.0548 -3.6196
-4.2039 -4.7835 -5.4290 -6.0652 -6.6689 -7.2718
-7.8226 -8.3003 -8.6861 -8.9661 -9.1340 -9.1887
-9.2304 -9.2202 -9.1729 -9.1219 -8.9930 -8.7825
-8.5961 -8.4505 -8.2622 -8.1379 -8.0396 -7.8662
-7.6668 -7.4702 -7.3172 -7.1317 -6.8869 -6.6643
-6.4389 -6.2349 -6.0420 -5.8352 -5.6543 -5.4623
-5.2694 -5.0979 -4.9625 -4.8410 -4.7575 -4.7881
-4.8549 -5.0005 -5.2509 -5.5560 -5.9186 -6.2692
-6.6244 -7.0009 -7.3403 -7.6278 -7.7975 -7.8690
-7.8411 -7.7280 -7.5879 -7.3635 -7.1150 -6.8330
-6.5029 -6.1347 -5.7044 -5.2935 -4.8113 -4.2808
-3.7772 -3.2365 -2.7385 -2.3434 -2.0355 -1.7721
-1.5255 -1.3335 -1.1591 -0.9328 -0.6908 -0.4432
-0.1418 0.1977 0.5993 1.0889 1.6157 2.1286
2.5895 3.0059 3.3666 3.6208 3.8211 3.9620
4.0566 4.1809 4.2839 4.4341 4.7142 5.0258
5.3309 5.6323 5.8679 6.0784 6.2296 6.3270
6.4540 6.4800 6.5273 6.5764 6.5764 6.6655
6.6710 6.6757 6.6757 6.5449 6.4012 6.1916
5.9421 5.6463 5.2892 4.9396 4.5565 4.2116
3.9389 3.7108 3.5818 3.5485 3.6115 3.7191
3.8758 4.0585 4.1754 4.2431 4.2607 4.1902
4.0762 3.9927 3.8972 3.8128 3.6681 3.4798
3.3704 3.2619 3.2573 3.3278 3.4001 3.5605
3.7683 3.9834 4.1856 4.3785 4.5241 4.5900
4.5705 4.4768 4.3359 4.1226 3.8620 3.5893
3.3064 3.0653 2.8594 2.6637 2.5219 2.3781
2.2817 2.2529 2.2047 2.1472 1.9942 1.7725
1.4971 1.0992 0.6318 0.1876 -0.1713 -0.5191
-0.8289 -1.1182 -1.4632 -1.8064 -2.1634 -2.5019
-2.8005 -3.0407 -3.2104 -3.3904 -3.5629 -3.7409
-3.8578 -3.9422 -4.0572 -4.1518 -4.2473 -4.3734
-4.6581 -5.0365 -5.4603 -5.8953 -6.2811 -6.6697
-6.9525 -7.1779 -7.2651 -7.2539 -7.2502 -7.1111
-6.9303 -6.7179 -6.5296 -6.4749 -6.5185 -6.6418
-6.7717 -6.8876 -6.9701 -6.9813 -6.9293 -6.7939
-6.6047 -6.3757 -6.0937 -5.8238 -5.5215 -5.2247
-5.0040 -4.8037 -4.6618 -4.5218 -4.3771 -4.2574
-4.1332 -4.0367 -3.8958 -3.7455 -3.5990 -3.3977
-3.1872 -2.9507 -2.7365 -2.5093 -2.2514 -1.9964
-1.6913 -1.3454 -0.9540 -0.5802 -0.2278 0.0856
0.3564 0.6476 0.9055 1.1410 1.3414 1.4981
1.5862 1.5880 1.5463 1.5009 1.4721 1.4016
1.3469 1.2950 1.1865 1.0993 1.0641 1.0743
1.1512 1.2783 1.4081 1.5027 1.5621 1.5797
1.4471 1.1782 0.8665 0.5169 0.1070 -0.3307
-0.7778 -1.2396 -1.6746 -2.0956 -2.4499 -2.6891
-2.7643 -2.7550 -2.6520 -2.4517 -2.2755 -2.0140
-1.7626 -1.4742 -1.1858 -1.0152 -0.7972 -0.6414
-0.5477 -0.3910 -0.1870 0.0838 0.3704 0.6588
0.9732 1.2774 1.6057 1.9062 2.1714 2.4237
2.6630 2.9041 3.1091 3.3474 3.5282 3.6303
3.6794 3.6887 3.7091 3.6720 3.7063 3.8046
3.9057 3.9818 4.0040 4.0133 3.9493 3.8788
3.8195 3.7490 3.7369 3.7434 3.7026 3.6284
3.5060 3.3335 3.1313 2.8995 2.6324 2.3458
2.0750 1.7912 1.5010 1.2366 0.9723 0.6403
0.2749 -0.0821 -0.4661 -0.8176 -1.1375 -1.3953
-1.6142 -1.8433 -1.9648 -2.0232 -2.0399 -2.0056
-1.9926 -1.9518 -1.9258 -1.9184 -1.9165 -1.9490
-1.9981 -2.0510 -2.1076 -2.2031 -2.2968 -2.3515
-2.3728 -2.3663 -2.3385 -2.2773 -2.1530 -1.9573
-1.7162 -1.4584 -1.1876 -0.8713 -0.5421 -0.1934
0.1841 0.5059 0.7971 1.0837 1.2858 1.4064
1.5140 1.6633 1.8506 2.0473 2.2680 2.4562
2.6074 2.7372 2.7966 2.8059 2.7808 2.6983
2.5490 2.3728 2.1465 1.8831 1.5975 1.2571
0.9205 0.5838 0.2231 -0.1386 -0.5179 -0.9427
-1.4259 -1.9341 -2.4395 -2.9218 -3.2890 -3.6220
-4.0319 -4.3954 -4.7525 -5.1299 -5.4360 -5.7198
-6.0082 -6.2447 -6.3652 -6.4367 -6.4422 -6.3968
-6.3634 -6.2567 -6.1445 -6.0138 -5.7986 -5.5463
-5.2264 -4.8665 -4.5169 -4.1367 -3.7295 -3.3233
-2.9004 -2.4914 -2.1242 -1.7764 -1.4713 -1.2098
-0.9909 -0.8212 -0.6811 -0.5717 -0.4678 -0.3695
-0.2425 -0.1080 0.0089 0.1610 0.3223 0.5013
0.6850 0.8704 1.0123 1.0893 1.1681 1.2025
1.2062 1.2674 1.4204 1.6448 1.9091 2.2152
2.5416 2.8431 3.1009 3.3114 3.4551 3.5173
3.5405 3.5822 3.6286 3.6805 3.7612 3.8577
3.9791 4.0951 4.2212 4.3473 4.4512 4.5625
4.6487 4.6942 4.6923 4.6710 4.6061 4.4864
4.4011 4.3167 4.2602 4.2342 4.2249 4.2156
4.1684 4.1980 4.2611 4.3631 4.5393 4.7229
4.9845 5.2831 5.6272 6.0788 6.5221 6.9784
7.4523 7.8845 8.2647 8.5495 8.8054 8.9872
9.0632 9.0595 8.9408 8.7322 8.4335 8.0728
7.6684 7.2177 6.7327 6.1957 5.5947 4.9836
4.3743 3.7817 3.2159 2.6001 1.9602 1.2665
0.4903 -0.2897 -1.0650 -1.8598 -2.6425 -3.3974
-4.1672 -4.9221 -5.7020 -6.4430 -7.0811 -7.7303
-8.3201 -8.8599 -9.3755 -9.8633 -10.3205 -10.6535
-10.9437 -11.1459 -11.2118 -11.1951 -11.0940 -10.9456
-10.6813 -10.3780 -10.0543 -9.6815 -9.3477 -8.9628
-8.5603 -8.1531 -7.6690 -7.1747 -6.6702 -6.1546
-5.6528 -5.1140 -4.5715 -4.0466 -3.5235 -3.0413
-2.5655 -2.1240 -1.7317 -1.3144 -0.8210 -0.2674
0.2817 0.8372 1.3806 1.8833 2.3452 2.7217
3.0027 3.2141 3.4015 3.5666 3.7196 3.8708
3.9858 4.0896 4.1555 4.1694 4.1193 4.0043
3.8624 3.6259 3.3384 3.0964 2.8645 2.6419
2.4611 2.3276 2.2636 2.2367 2.3025 2.4500
2.6058 2.8107 3.0268 3.2244 3.4099 3.6222
3.8300 3.9941 4.1388 4.2037 4.2111 4.1889
4.1026 4.0229 4.0025 3.9784 3.9913 4.0479
4.1156 4.2380 4.4207 4.6841 4.9939 5.2767
5.5429 5.7534 5.8647 5.9083 5.8221 5.6681
5.5003 5.2860 5.0866 4.9114 4.7639 4.6053
4.4579 4.3197 4.1861 4.0693 3.9348 3.7938
3.5713 3.2865 2.9824 2.5743 2.1560 1.7879
1.4308 1.1108 0.7992 0.5470 0.3374 0.1603
-0.0345 -0.2413 -0.2766 -0.3016 -0.3229 -0.3294
-0.4194 -0.5269 -0.6679 -0.7208 -0.7124 -0.7347
-0.7922 -0.8701 -0.9146 -1.0092 -1.1186 -1.1937
-1.2967 -1.4154 -1.5684 -1.7650 -1.9394 -2.1100
-2.3066 -2.4763 -2.6757 -2.9456 -3.1673 -3.3852
-3.5883 -3.7172 -3.8665 -4.0047 -4.1540 -4.3330
-4.5296 -4.7967 -5.0786 -5.3745 -5.6518 -5.8864
-6.1044 -6.2073 -6.3084 -6.3854 -6.3362 -6.2472
-6.0339 -5.7974 -5.5312 -5.1973 -4.9089 -4.5305
-4.1540 -3.8461 -3.5150 -3.2331 -2.9474 -2.6219
-2.3520 -2.0859 -1.8058 -1.5276 -1.2558 -1.0064
-0.7328 -0.4694 -0.2116 0.0778 0.3801 0.6741
0.9913 1.2908 1.5292 1.7722 1.9363 2.0838
2.2294 2.3147 2.4047 2.4195 2.3852 2.3119
2.2257 2.1932 2.1227 1.9994 1.8436 1.5728
1.2760 0.9514 0.5591 0.2039 -0.1948 -0.5806
-0.9702 -1.3662 -1.7158 -2.1025 -2.4429 -2.7480
-2.9854 -3.2015 -3.4167 -3.5474 -3.7227 -3.9008
-4.0649 -4.2662 -4.4591 -4.6547 -4.8996 -5.1184
-5.3188 -5.5311 -5.6600 -5.7917 -5.8975 -5.9262
-5.9355 -5.9002 -5.8149 -5.6795 -5.5590 -5.3883
-5.1815 -4.9756 -4.7493 -4.5861 -4.4627 -4.3802
-4.3524 -4.4052 -4.5193 -4.6733 -4.8968 -5.1119
-5.3725 -5.6285 -5.7778 -5.9123 -5.9837 -5.9967
-5.9976 -5.9809 -6.0041 -6.0291 -6.0727 -6.1914
-6.3407 -6.4928 -6.6347 -6.8044 -6.9788 -7.1457
-7.3182 -7.4267 -7.4944 -7.5362 -7.5473 -7.5139
-7.4416 -7.3423 -7.1772 -6.9843 -6.7395 -6.4529
-6.1534 -5.7982 -5.4421 -5.1008 -4.7539 -4.4293
-4.1094 -3.7430 -3.2867 -2.7674 -2.1525 -1.4588
-0.7558 -0.0130 0.6983 1.3281 1.9077 2.4215
2.8583 3.2571 3.6392 4.0426 4.4414 4.7919
5.1230 5.4040 5.6563 5.8863 6.0736 6.1840
6.2304 6.2257 6.1821 6.1321 6.0338 5.9892
5.9698 5.9030 5.8093 5.6600 5.5042 5.3465
5.1954 5.0507 4.9292 4.9116 4.9617 5.0628
5.2093 5.3846 5.6044 5.7926 5.9447 6.1172
6.3046 6.5457 6.7933 7.0178 7.2589 7.4750
7.6512 7.8376 8.0101 8.1325 8.2317 8.2883
8.3328 8.3551 8.3328 8.3338 8.3467 8.4182
8.5554 8.7455 8.9737 9.2241 9.4986 9.7332
9.9475 10.0921 10.1617 10.1803 10.0838 9.9308
9.7499 9.5348 9.2417 8.8661 8.5925 8.3904
8.1678 8.0222 7.8942 7.8042 7.7579 7.7059
7.6707 7.5928 7.5075 7.3990 7.2775 7.1328
6.8972 6.7062 6.4753 6.2082 5.9977 5.7315
5.5173 5.2984 5.0665 4.8940 4.6807 4.4990
4.3580 4.2467 4.2050 4.2133 4.2486 4.2875
4.3237 4.2940 4.2143 4.1122 3.9602 3.7561
3.4640 3.1524 2.8250 2.4902 2.2009 1.9180
1.7483 1.6324 1.5610 1.5841 1.6073 1.6991
1.7400 1.6797 1.5804 1.4228 1.1863 0.8877
0.6298 0.2941 -0.1037 -0.4432 -0.8076 -1.1322
-1.4327 -1.7823 -2.1116 -2.4807 -2.8489 -3.1697
-3.4795 -3.7605 -4.0137 -4.1973 -4.3225 -4.4245
-4.5265 -4.5998 -4.7454 -4.9810 -5.2397 -5.5912
-5.9455 -6.3545 -6.8033 -7.2383 -7.7428 -8.2130
-8.6758 -9.1274 -9.5021 -9.8591 -10.1309 -10.3117
-10.4221 -10.4870 -10.5686 -10.6483 -10.7225 -10.7810
-10.8310 -10.8709 -10.8876 -10.8607 -10.7939 -10.7364
-10.6261 -10.4387 -10.2273 -9.9444 -9.6161 -9.2581
-8.8019 -8.2816 -7.6982 -7.0537 -6.4026 -5.7377
-5.0802 -4.4365 -3.8458 -3.3338 -2.8581 -2.4621
-2.1199 -1.8389 -1.6376 -1.4549 -1.3269 -1.1637
-0.9411 -0.6889 -0.3568 -0.0183 0.3443 0.6995
0.9471 1.1113 1.2096 1.2717 1.2884 1.2689
1.1975 1.1168 1.0565 0.9786 0.9425 0.9091
0.9258 0.9796 0.9907 1.0686 1.1428 1.1920
1.2921 1.4062 1.5648 1.7113 1.8755 2.0480
2.1602 2.2817 2.3355 2.3800 2.3985 2.3763
2.3957 2.3800 2.3893 2.4050 2.4180 2.4403
2.4134 2.3605 2.3281 2.2900 2.2093 2.1945
2.1723 2.1222 2.1046 2.0777 2.1092 2.1240
2.1129 2.1231 2.1036 2.0702 2.0016 1.9747
1.9951 2.0267 2.1222 2.2298 2.3513 2.4561
2.5358 2.6026 2.6184 2.6146 2.5803 2.4941
2.3355 2.1445 1.9636 1.7151 1.4925 1.3154
1.1030 0.9592 0.7942 0.6050 0.4649 0.3165
0.2192 0.1663 0.1422 0.1505 0.1802 0.2581
0.3564 0.5039 0.7144 0.9370 1.1957 1.4591
1.7049 1.9404 2.1602 2.4042 2.6323 2.7992
2.9717 3.1461 3.2843 3.4345 3.5625 3.6562
3.7591 3.8417 3.8992 3.9409 3.9659 3.9993
4.0290 4.0540 4.0986 4.0893 4.0494 3.9761
3.8380 3.6905 3.4939 3.2963 3.1081 2.8642
2.6314 2.4366 2.2382 2.0360 1.8375 1.6103
1.3877 1.1522 0.9120 0.6662 0.3824 0.1367
-0.1833 -0.5273 -0.8492 -1.2275 -1.4983 -1.7580
-2.0464 -2.2477 -2.4870 -2.7624 -3.0508 -3.3606
-3.6536 -3.9680 -4.2592 -4.5616 -4.8481 -5.0735
-5.3165 -5.4880 -5.6540 -5.8340 -5.9675 -6.1725
-6.3784 -6.6204 -6.9311 -7.2473 -7.5747 -7.8872
-8.1998 -8.4697 -8.7238 -8.9955 -9.2524 -9.4870
-9.6799 -9.8441 -9.9823 -10.1047 -10.2735 -10.4515
-10.6055 -10.7863 -10.9560 -11.1183 -11.2955 -11.4021
-11.4633 -11.4995 -11.4568 -11.4169 -11.3557 -11.2277
-11.0831 -10.8967 -10.6759 -10.4135 -10.1519 -9.8913
-9.5705 -9.2190 -8.8276 -8.4112 -7.9827 -7.5162
-7.0609 -6.6435 -6.2160 -5.8172 -5.4592 -5.1300
-4.8249 -4.5188 -4.2323 -3.9494 -3.6730 -3.3800
-3.1175 -2.8783 -2.6149 -2.3162 -1.9462 -1.6179
-1.2850 -0.9121 -0.5903 -0.2787 0.0134 0.2824
0.5485 0.7869 1.0169 1.1996 1.3470 1.4787
1.5427 1.5937 1.6429 1.6985 1.8061 1.9703
2.1354 2.3440 2.5916 2.8077 3.0804 3.3753
3.6860 4.0486 4.4344 4.7980 5.1290 5.4184
5.6317 5.8329 5.9572 6.0045 6.0444 6.0741
6.1279 6.1529 6.2188 6.3597 6.4886 6.6380
6.7548 6.8466 6.9366 6.9644 6.9867 7.0024
6.9959 6.9700 6.9774 7.0330 7.0785 7.1619
7.2732 7.3382 7.3892 7.4634 7.5097 7.5357
7.5441 7.5088 7.4597 7.4263 7.4207 7.4105
7.4022 7.3947 7.3753 7.3493 7.2937 7.2148
7.1147 7.0145 6.9153 6.7762 6.6129 6.4404
6.2624 6.0574 5.8163 5.6095 5.4509 5.2766
5.1115 4.9844 4.8815 4.7887 4.6543 4.4957
4.3288 4.1145 3.8604 3.5970 3.3170 3.0091
2.7262 2.4943 2.2643 2.0047 1.7162 1.4686
1.2359 0.9669 0.7490 0.5839 0.4355 0.2649
0.0868 -0.0477 -0.1998 -0.3667 -0.5522 -0.8026
-1.0743 -1.3507 -1.5918 -1.8218 -2.0435 -2.1955
-2.2901 -2.3198 -2.3300 -2.3068 -2.2707 -2.3105
-2.3968 -2.5211 -2.6954 -2.8828 -3.0024 -2.9885
-2.9319 -2.9124 -2.8772 -2.7752 -2.5739 -2.3671
-2.2280 -2.1380 -2.0509 -1.9590 -1.9145 -1.8301
-1.6734 -1.4443 -1.2329 -1.0891 -0.9231 -0.7803
-0.6940 -0.6848 -0.7284 -0.8508 -1.0771 -1.2718
-1.4536 -1.6233 -1.7411 -1.8635 -1.9247 -1.8922
-1.8097 -1.6715 -1.5046 -1.2468 -0.9092 -0.6143
-0.3861 -0.1413 0.1351 0.3196 0.4346 0.4921
0.5367 0.5524 0.5014 0.5459 0.6340 0.7221
0.7973 0.8316 0.8436 0.8149 0.7528 0.6628
0.5886 0.4912 0.3391 0.1481 -0.0235 -0.1923
-0.3740 -0.5187 -0.7098 -0.8702 -0.9815 -1.1327
-1.2597 -1.4044 -1.5463 -1.6891 -1.8514 -2.0146
-2.1973 -2.3123 -2.4765 -2.6462 -2.7825 -2.9476
-2.9921 -3.0153 -2.9624 -2.8252 -2.6638 -2.3921
-2.0981 -1.7633 -1.4146 -1.1354 -0.8748 -0.6402
-0.4399 -0.2293 -0.0346 0.1741 0.4022 0.5831
0.7231 0.7945 0.8780 1.0004 1.0959 1.1683
1.2193 1.2592 1.2555 1.2323 1.1970 1.1664
1.1275 0.9800 0.7528 0.4635 0.1092 -0.2924
-0.7245 -1.1614 -1.6121 -2.0507 -2.4588 -2.8316
-3.1664 -3.4678 -3.7952 -4.1365 -4.4416 -4.7773
-5.0398 -5.2280 -5.3783 -5.4126 -5.4200 -5.3597
-5.2234 -4.9971 -4.7207 -4.4676 -4.1383 -3.8545
-3.6153 -3.3918 -3.1979 -2.8965 -2.5747 -2.2121
-1.7660 -1.2819 -0.7152 -0.1671 0.3921 0.9940
1.5931 2.2052 2.7570 3.2671 3.7456 4.1629
4.5534 4.9002 5.2063 5.4409 5.5921 5.7321
5.8397 5.9352 6.0512 6.1782 6.2932 6.3554
6.4147 6.4833 6.5510 6.5594 6.5473 6.5214
6.4147 6.2821 6.1254 6.0020 5.8722 5.7461
5.6422 5.4558 5.3473 5.2842 5.2202 5.2137
5.1924 5.2137 5.2147 5.1989 5.1785 5.1479
5.1989 5.2360 5.2870 5.3547 5.3825 5.4141
5.4595 5.5059 5.5485 5.6366 5.6941 5.7275
5.7823 5.8240 5.9000 5.9696 6.0308 6.0540
6.0095 5.9752 5.9177 5.8667 5.8407 5.7359
5.6079 5.4716 5.2499 4.9810 4.6480 4.2984
3.9414 3.5212 3.0965 2.6550 2.2229 1.8436
1.5004 1.1619 0.8383 0.5174 0.1779 -0.1058
-0.3915 -0.7142 -1.0314 -1.3282 -1.5953 -1.8688
-2.1007 -2.2825 -2.4513 -2.5829 -2.7072 -2.7721
-2.8074 -2.8565 -2.8231 -2.8268 -2.9168 -3.0411
-3.2080 -3.3889 -3.5938 -3.7876 -4.0047 -4.2096
-4.3459 -4.4721 -4.5407 -4.5537 -4.5546 -4.5184
-4.5082 -4.5527 -4.5806 -4.6594 -4.7540 -4.8152
-4.8866 -4.8996 -4.8847 -4.8653 -4.8439 -4.8560
-4.9051 -4.9868 -5.1036 -5.2566 -5.3883 -5.4978
-5.5664 -5.5951 -5.6090 -5.5942 -5.5367 -5.4440
-5.3586 -5.2464 -5.1157 -5.0164 -4.9432 -4.9487
-4.9979 -5.0220 -5.0331 -4.9580 -4.8569 -4.7428
-4.5629 -4.3617 -4.0909 -3.8117 -3.5066 -3.1430
-2.7637 -2.3668 -1.9903 -1.6026 -1.2391 -0.9172
-0.6566 -0.4582 -0.2708 -0.1160 0.0463 0.1511
0.2253 0.3635 0.4989 0.6621 0.8142 0.9710
1.1286 1.2177 1.2854 1.2631 1.1954 1.0526
0.7734 0.4887 0.1651 -0.1475 -0.4034 -0.6668
-0.8588 -1.0220 -1.2168 -1.3995 -1.5812 -1.7352
-1.9207 -2.0997 -2.1896 -2.2703 -2.3074 -2.3222
-2.3083 -2.2471 -2.2230 -2.2360 -2.2824 -2.3334
-2.4001 -2.5281 -2.6728 -2.7896 -2.8805 -2.9631
-3.0391 -3.0363 -3.0122 -2.9306 -2.7739 -2.6088
-2.3899 -2.2211 -2.0523 -1.8465 -1.6879 -1.5274
-1.3735 -1.2019 -1.0554 -0.9478 -0.8560 -0.8365
-0.8328 -0.8291 -0.8328 -0.8142 -0.7335 -0.6176
-0.5267 -0.3876 -0.2457 -0.0983 0.0622 0.1605
0.2059 0.1837 0.1484 0.0455 -0.1020 -0.2262
-0.3607 -0.4803 -0.6491 -0.7901 -0.9107 -1.0850
-1.1982 -1.2890 -1.3642 -1.3911 -1.4152 -1.4328
-1.4235 -1.3642 -1.2621 -1.1527 -1.0850 -1.0785
-1.0943 -1.1629 -1.2723 -1.3688 -1.4791 -1.5988
-1.7156 -1.8204 -1.9382 -2.0374 -2.0838 -2.1255
-2.1218 -2.1098 -2.0532 -1.9391 -1.8130 -1.6238
-1.4272 -1.2157 -1.0460 -0.9561 -0.8568 -0.7771
-0.7094 -0.6343 -0.5897 -0.5628 -0.5461 -0.5397
-0.5499 -0.5304 -0.4701 -0.3903 -0.2308 -0.0314
0.1735 0.4174 0.6688 0.9108 1.1761 1.4302
1.6834 1.9551 2.2018 2.4865 2.7276 2.9029
3.0884 3.2525 3.4556 3.6643 3.8999 4.1447
4.3905 4.6307 4.8152 5.0239 5.1565 5.2409
5.3179 5.2975 5.2502 5.1194 4.9432 4.7633
4.5305 4.2876 4.0112 3.7571 3.5252 3.2971
3.1237 2.9567 2.8148 2.6664 2.5385 2.4077
2.2204 2.0729 1.9561 1.8309 1.6992 1.5767
1.4182 1.2494 1.0760 0.8358 0.6484 0.4861
0.2932 0.1263 -0.0360 -0.1927 -0.3096 -0.4144
-0.5442 -0.6379 -0.6778 -0.6787 -0.6249 -0.5609
-0.5257 -0.4802 -0.4635 -0.5145 -0.5368 -0.5414
-0.5600 -0.5414 -0.5266 -0.5062 -0.4821 -0.4450
-0.3606 -0.2604 -0.1185 0.0122 0.1347 0.2997
0.4222 0.5084 0.5956 0.6485 0.6549 0.6308
0.5780 0.5353 0.5093 0.4852 0.5047 0.5446
0.6067 0.6958 0.7690 0.8571 0.9675 1.0983
1.2550 1.3969 1.5443 1.6927 1.8179 1.9255
2.0025 2.1138 2.2186 2.2863 2.3753 2.4625
2.5302 2.5923 2.7008 2.8001 2.8743 2.9652
3.0598 3.1284 3.1543 3.1377 3.0440 2.9179
2.7305 2.4931 2.2659 2.0276 1.7605 1.5175
1.3422 1.1762 1.0501 0.9536 0.8683 0.7514
0.6160 0.5122 0.3888 0.2748 0.1078 -0.0693
-0.2270 -0.4245 -0.5673 -0.6805 -0.7806 -0.8613
-0.9429 -0.9911 -1.0134 -1.0440 -1.1043 -1.1544
-1.2100 -1.2666 -1.3074 -1.3751 -1.4317 -1.4391
-1.4279 -1.4493 -1.4548 -1.3955 -1.3027 -1.1803
-1.0087 -0.7880 -0.5385 -0.2817 -0.0294 0.2498
0.4696 0.6383 0.7821 0.9138 1.0566 1.1373
1.2421 1.3478 1.4331 1.5101 1.5621 1.6455
1.7707 1.9404 2.1241 2.3847 2.7046 3.0107
3.2991 3.5643 3.8064 3.9845 4.1486 4.2376
4.2312 4.2274 4.1551 3.9928 3.8287 3.6701
3.4809 3.3232 3.1424 2.9652 2.8382 2.6777
2.5572 2.4236 2.2780 2.1408 1.9674 1.7958
1.5834 1.3859 1.1902 0.9825 0.8257 0.6746
0.5484 0.4770 0.4390 0.4362 0.4909 0.5735
0.6245 0.7052 0.7747 0.8304 0.9315 1.0103
1.1067 1.1652 1.1735 1.1828 1.1559 1.1114
0.9918 0.8768 0.8257 0.7590 0.7117 0.6477
0.5744 0.4761 0.3036 0.1395 -0.0302 -0.1554
-0.2510 -0.3623 -0.4374 -0.6256 -0.8779 -1.1051
-1.3768 -1.6245 -1.8795 -2.0937 -2.2653 -2.4712
-2.6529 -2.8505 -3.0592 -3.1946 -3.3142 -3.4051
-3.4542 -3.4691 -3.4227 -3.4375 -3.4422 -3.3791
-3.3244 -3.2799 -3.2938 -3.3123 -3.3299 -3.3652
-3.4153 -3.4616 -3.5163 -3.5692 -3.5794 -3.5868
-3.5738 -3.5210 -3.4561 -3.3846 -3.2780 -3.1324
-3.0007 -2.9228 -2.8403 -2.7540 -2.6854 -2.6260
-2.5722 -2.4730 -2.3561 -2.2133 -2.1289 -2.1428
-2.1475 -2.1595 -2.1206 -2.0464 -1.9286 -1.7283
-1.5938 -1.5075 -1.4250 -1.3619 -1.3146 -1.3183
-1.2803 -1.2970 -1.4009 -1.4686 -1.5715 -1.7208
-1.8878 -1.9861 -2.0890 -2.2096 -2.2495 -2.2485
-2.2105 -2.1725 -2.1224 -2.0974 -2.0473 -1.9536
-1.8636 -1.7700 -1.7440 -1.6735 -1.6049 -1.5817
-1.5752 -1.5910 -1.5455 -1.5455 -1.4815 -1.3526
-1.2349 -1.0364 -0.8611 -0.6951 -0.5374 -0.4187
-0.3213 -0.2842 -0.3009 -0.3473 -0.4067 -0.5133
-0.6645 -0.7813 -0.8806 -0.9715 -1.0178 -1.0104
-0.9436 -0.8917 -0.8194 -0.7572 -0.7721 -0.7739
-0.7748 -0.7925 -0.8518 -0.9028 -0.9464 -1.0456
-1.1291 -1.2042 -1.2895 -1.3489 -1.3795 -1.3869
-1.3702 -1.3016 -1.1671 -1.0271 -0.8657 -0.6886
-0.5420 -0.4178 -0.3093 -0.1831 -0.0709 0.0098
0.0191 -0.0737 -0.2026 -0.3584 -0.5049 -0.5708
-0.6329 -0.7377 -0.8026 -0.8490 -0.8852 -0.8889
-0.9065 -0.8944 -0.8703 -0.8629 -0.8694 -0.9529
-1.0474 -1.1615 -1.3127 -1.4379 -1.5343 -1.5724
-1.6048 -1.6076 -1.6011 -1.5686 -1.4759 -1.3655
-1.2107 -1.0817 -0.9000 -0.6913 -0.5207 -0.2981
-0.0764 0.1109 0.2380 0.3585 0.4559 0.5199
0.5728 0.5663 0.5997 0.5978 0.5858 0.6590
0.7008 0.7703 0.8167 0.8362 0.8315 0.7332
0.6748 0.5867 0.4633 0.3465 0.1749 0.0302
-0.0950 -0.2452 -0.3546 -0.4131 -0.4325 -0.3296
-0.1654 -0.0235 0.1388 0.2751 0.3827 0.5190
0.6405 0.7360 0.8186 0.8566 0.8937 0.9354
0.9558 0.9790 1.0078 1.0504 1.0755 1.0866
1.1274 1.1617 1.1543 1.1024 0.9976 0.8835
0.7852 0.6795 0.6257 0.6257 0.6387 0.6424
0.6229 0.5979 0.5200 0.4040 0.2965 0.1638
0.0488 -0.0383 -0.1348 -0.2693 -0.4223 -0.5020
-0.5642 -0.6013 -0.6347 -0.6894 -0.6792 -0.7283
-0.8034 -0.8609 -0.9240 -0.9732 -1.0418 -1.0881
-1.1401 -1.2208 -1.2968 -1.3367 -1.4248 -1.5389
-1.6001 -1.6937 -1.7299 -1.7216 -1.7216 -1.6557
-1.5713 -1.4739 -1.3228 -1.1846 -1.0761 -0.9286
-0.8173 -0.7533 -0.7209 -0.7255 -0.6986 -0.7199
-0.7589 -0.7700 -0.8099 -0.7802 -0.7060 -0.6049
-0.4269 -0.2182 0.0257 0.2464 0.4940 0.7676
1.0505 1.4196 1.7359 1.9825 2.2042 2.3507
2.4286 2.4704 2.4954 2.5010 2.5130 2.5297
2.5427 2.6151 2.7263 2.8450 2.9981 3.1214
3.2707 3.4108 3.4664 3.5406 3.5592 3.5638
3.5313 3.4006 3.2893 3.1650 3.0760 3.0139
2.9480 2.9276 2.8831 2.8349 2.7672 2.6846
2.6271 2.5437 2.4741 2.3693 2.2794 2.2942
2.3489 2.4593 2.6160 2.8302 3.0556 3.2875
3.4998 3.6093 3.6881 3.7567 3.8356 3.9385
4.0721 4.2232 4.3670 4.4801 4.5487 4.6137
4.6498 4.6517 4.6165 4.5580 4.5293 4.4718
4.3911 4.3447 4.2844 4.1880 4.0498 3.9599
3.9190 3.8931 3.9061 3.8884 3.8551 3.8087
3.7846 3.7568 3.7002 3.6751 3.6121 3.5295
3.4646 3.3682 3.2625 3.1131 2.8933 2.6875
2.4463 2.2182 2.0225 1.7573 1.4995 1.2583
1.0293 0.8030 0.5832 0.3374 0.0917 -0.0808
-0.2468 -0.3368 -0.3878 -0.5019 -0.6308 -0.7773
-0.9238 -1.0120 -1.0379 -1.0444 -1.0157 -0.9442
-0.8849 -0.8747 -0.8663 -0.8654 -0.9109 -0.9248
-0.9563 -1.0212 -1.0555 -1.1186 -1.2178 -1.3226
-1.4042 -1.4933 -1.5619 -1.5897 -1.6240 -1.6658
-1.7706 -1.8902 -1.9644 -2.0191 -2.0720 -2.1026
-2.0784 -2.0386 -1.9922 -1.9829 -2.0200 -2.0840
-2.2036 -2.3363 -2.4587 -2.5700 -2.6395 -2.6608
-2.7063 -2.7694 -2.7777 -2.7749 -2.7888 -2.8139
-2.8278 -2.8630 -2.9372 -2.9891 -3.0531 -3.1162
-3.1394 -3.1514 -3.0884 -2.9715 -2.8315 -2.6460
-2.5059 -2.4104 -2.3381 -2.3047 -2.2973 -2.3019
-2.2815 -2.2899 -2.3381 -2.3891 -2.4892 -2.6543
-2.8175 -2.9659 -3.1227 -3.3081 -3.5233 -3.7190
-3.9314 -4.1150 -4.2226 -4.3032 -4.4145 -4.5527
-4.6380 -4.7382 -4.8300 -4.9023 -4.9580 -4.9598
-4.9580 -4.9432 -4.8801 -4.7669 -4.6454 -4.4637
-4.2606 -4.0695 -3.8813 -3.7366 -3.5873 -3.4815
-3.3842 -3.2988 -3.1876 -3.0327 -2.9167 -2.7554
-2.5940 -2.4827 -2.4234 -2.3798 -2.3390 -2.3037
-2.2165 -2.1488 -2.1006 -2.0552 -2.0542 -2.0431
-2.0032 -1.9476 -1.8957 -1.8381 -1.6805 -1.5265
-1.4245 -1.2706 -1.1222 -1.0053 -0.8913 -0.7837
-0.6696 -0.5314 -0.3691 -0.1883 0.0120 0.2105
0.3904 0.5833 0.7725 0.9645 1.1555 1.2882
1.4273 1.5367 1.5822 1.6434 1.7222 1.8122
1.8576 1.9105 2.0041 2.0561 2.0913 2.1219
2.1395 2.1479 2.1618 2.1609 2.0403 1.9198
1.8298 1.7315 1.6870 1.6221 1.6072 1.5785
1.5265 1.5071 1.4190 1.3782 1.3466 1.3142
1.3142 1.2817 1.2595 1.1927 1.1231 1.0712
1.0174 0.9460 0.8440 0.7596 0.6557 0.5908
0.5018 0.3432 0.2022 0.0251 -0.2012 -0.4405
-0.6491 -0.8532 -1.0303 -1.1323 -1.2334 -1.3252
-1.3549 -1.3104 -1.2213 -1.0999 -0.9348 -0.7178
-0.5174 -0.3635 -0.2058 -0.0741 0.0566 0.1679
0.2523 0.3720 0.4638 0.5565 0.6660 0.7494
0.8338 0.9182 0.9813 1.0555 1.1417 1.2391
1.3764 1.4923 1.6694 1.8725 2.0051 2.1628
2.3038 2.4058 2.4985 2.5950 2.6618 2.7193
2.7693 2.7257 2.6376 2.5171 2.3835 2.2843
2.2148 2.1127 2.0126 1.9467 1.7891 1.5990
1.4153 1.2141 1.0397 0.8607 0.6947 0.5491
0.4341 0.3535 0.2616 0.1930 0.1346 0.0623
0.0085 -0.0388 -0.0741 -0.1575 -0.2818 -0.4107
-0.5331 -0.6212 -0.7622 -0.8930 -0.9681 -1.0469
-1.0738 -1.0525 -0.9774 -0.8633 -0.7038 -0.4571
-0.2224 0.0224 0.2821 0.4926 0.6651 0.7949
0.9415 1.0546 1.1538 1.2763 1.3467 1.3820
1.3681 1.3532 1.3393 1.3282 1.3365 1.3189
1.3004 1.2392 1.1566 1.0843 0.9619 0.8228
0.6883 0.5381 0.3526 0.1244 -0.0954 -0.3309
-0.5813 -0.8113 -1.0450 -1.2435 -1.4021 -1.5468
-1.6822 -1.8194 -1.9084 -1.9428 -1.9641 -1.9121
-1.8250 -1.7712 -1.7220 -1.6970 -1.6562 -1.5671
-1.4317 -1.2648 -1.1016 -0.9486 -0.8206 -0.6982
-0.6045 -0.5498 -0.4635 -0.3773 -0.3170 -0.2595
-0.1973 -0.1380 -0.0731 0.0132 0.0577 0.1106
0.1347 0.1152 0.1282 0.1235 0.1310 0.1356
0.1087 0.0262 -0.0666 -0.1139 -0.1788 -0.2456
-0.2734 -0.3049 -0.3225 -0.2882 -0.2956 -0.2891
-0.2381 -0.1667 -0.0508 0.0484 0.1616 0.2543
0.3211 0.4305 0.5196 0.5799 0.6030 0.5715
0.5214 0.4454 0.3443 0.2163 0.0865 -0.0239
-0.0610 -0.0174 0.0921 0.2785 0.4704 0.6819
0.8794 1.0408 1.2254 1.3979 1.5490 1.6622
1.6974 1.7345 1.7614 1.7586 1.7976 1.8300
1.9052 1.9914 2.0387 2.1352 2.2270 2.3253
2.4672 2.5840 2.6378 2.6823 2.7343 2.7473
2.7333 2.6935 2.6276 2.5256 2.3846 2.1992
1.9831 1.8032 1.6659 1.5546 1.4869 1.4786
1.5055 1.5593 1.6427 1.7716 1.9451 2.1630
2.4125 2.6805 2.9680 3.2045 3.4122 3.5634
3.6506 3.7118 3.7359 3.7860 3.8212 3.8370
3.8741 3.8806 3.8620 3.8574 3.8379 3.7693
3.6599 3.5449 3.4048 3.2546 3.1220 2.9801
2.8808 2.8011 2.6815 2.5637 2.4682 2.3216
2.1352 1.9460 1.7578 1.6029 1.4675 1.4100
1.3887 1.3840 1.4341 1.4842 1.5454 1.5945
1.6483 1.7374 1.8106 1.8820 1.9618 2.0230
2.0379 2.0202 2.0314 2.0592 2.1501 2.2549
2.3216 2.4422 2.5581 2.6787 2.7956 2.8660
2.9217 2.9022 2.8206 2.6991 2.5164 2.3319
2.1742 2.0101 1.8209 1.5974 1.3683 1.0938
0.8035 0.5522 0.2675 0.0096 -0.2083 -0.4300
-0.6173 -0.7907 -0.9632 -1.1311 -1.2869 -1.4668
-1.6847 -1.9101 -2.1484 -2.3803 -2.5630 -2.7039
-2.8570 -2.9877 -3.0573 -3.1185 -3.1676 -3.1908
-3.2122 -3.2938 -3.4004 -3.4218 -3.3865 -3.3021
-3.1417 -2.9302 -2.7160 -2.5277 -2.3830 -2.2430
-2.1002 -2.0232 -1.9583 -1.8989 -1.8822 -1.8869
-1.9082 -1.9249 -1.9444 -1.9861 -2.0213 -2.0371
-2.0519 -2.0417 -2.0074 -1.9870 -1.9935 -2.0250
-2.0825 -2.1771 -2.2884 -2.3886 -2.5203 -2.6900
-2.8848 -3.0461 -3.2140 -3.4217 -3.5339 -3.6888
-3.8409 -3.9346 -4.0588 -4.1488 -4.2647 -4.3575
-4.4734 -4.6190 -4.7340 -4.8406 -4.9037 -4.9566
-4.9325 -4.8675 -4.8212 -4.7479 -4.6783 -4.5782
-4.4854 -4.4140 -4.3166 -4.2174 -4.1154 -4.0533
-4.0236 -3.9995 -4.0124 -4.0087 -3.9781 -4.0013
-4.0514 -4.1080 -4.1414 -4.1404 -4.1571 -4.1488
-4.1580 -4.1673 -4.1488 -4.1525 -4.1061 -4.0421
-3.9651 -3.8613 -3.8130 -3.7379 -3.6489 -3.6062
-3.5302 -3.4829 -3.4504 -3.4235 -3.4421 -3.4180
-3.3929 -3.3419 -3.2723 -3.1972 -3.0294 -2.8532
-2.6380 -2.3653 -2.1103 -1.8766 -1.6503 -1.4222
-1.2571 -1.0809 -0.8759 -0.7229 -0.5838 -0.4595
-0.3408 -0.2323 -0.1034 0.0126 0.0719 0.1183
0.1665 0.2361 0.2824 0.3186 0.4095 0.5022
0.5625 0.6414 0.7295 0.7712 0.7851 0.8315
0.9242 1.0253 1.1422 1.2803 1.4222 1.6031
1.8210 2.0334 2.2421 2.4665 2.7178 2.9571
3.2066 3.5228 3.7677 3.9439 4.1628 4.3649
4.5263 4.6700 4.8147 4.9705 5.0865 5.1430
5.2460 5.3712 5.4843 5.5845 5.6513 5.7329
5.8015 5.8423 5.8414 5.8024 5.7115 5.5761
5.4556 5.3016 5.1468 5.0410 4.8945 4.7498
4.6144 4.4113 4.1897 3.9727 3.7686 3.5368
3.2994 3.0981 2.8366 2.5361 2.2477 1.9407
1.6606 1.4149 1.1691 0.9224 0.6841 0.4921
0.3057 0.1100 -0.0569 -0.2572 -0.4270 -0.5596
-0.7042 -0.8202 -0.9482 -1.0511 -1.1577 -1.2700
-1.3423 -1.3850 -1.3998 -1.4007 -1.3664 -1.3460
-1.2941 -1.2199 -1.1531 -1.0446 -0.9287 -0.7923
-0.6226 -0.4548 -0.2943 -0.1663 -0.0458 0.0581
0.1360 0.2019 0.1926 0.1972 0.1666 0.0878
0.0312 -0.0012 -0.0012 -0.0680 -0.1357 -0.2127
-0.2971 -0.3518 -0.4260 -0.4816 -0.5039 -0.4974
-0.5280 -0.5679 -0.5688 -0.5679 -0.5614 -0.5169
-0.4538 -0.4148 -0.3434 -0.2859 -0.2201 -0.1338
-0.0476 0.0619 0.1119 0.1314 0.1565 0.2121
0.2575 0.2752 0.3095 0.3252 0.3596 0.3688
0.3679 0.3846 0.3614 0.3364 0.2974 0.2474
0.1889 0.1407 0.0832 -0.0132 -0.0847 -0.1876
-0.2961 -0.3935 -0.5178 -0.6188 -0.7292 -0.8461
-0.9648 -1.0631 -1.1382 -1.1883 -1.2012 -1.2309
-1.2383 -1.2300 -1.1985 -1.1586 -1.1252 -1.0844
-1.0742 -1.0872 -1.1289 -1.1688 -1.1882 -1.1929
-1.1818 -1.1298 -1.0083 -0.8423 -0.6800 -0.5177
-0.3258 -0.1356 0.0406 0.1695 0.2557 0.3077
0.3355 0.3346 0.3142 0.2669 0.1676 0.1101
0.0582 0.0091 -0.0123 -0.0290 -0.0076 0.0258
0.0629 0.1046 0.1417 0.1862 0.2437 0.2938
0.3355 0.3837 0.4468 0.5275 0.6091 0.6944
0.7556 0.7798 0.8169 0.8744 0.9374 1.0311
1.0802 1.0543 1.0682 1.0515 0.9690 0.9207
0.8595 0.8104 0.7863 0.7436 0.6963 0.6360
0.6110 0.6184 0.6555 0.7047 0.7223 0.7176
0.7325 0.7928 0.8308 0.8809 0.9616 1.0441
1.1554 1.2824 1.4123 1.5486 1.6682 1.7712
1.8945 1.9799 2.0364 2.0837 2.1041 2.1106
2.0810 2.0513 2.0160 1.9799 1.9372 1.8537
1.7601 1.6608 1.5690 1.4550 1.3261 1.2175
1.0701 0.9356 0.7909 0.6129 0.4339 0.2104
0.0054 -0.1782 -0.3637 -0.5436 -0.7179 -0.8904
-1.0629 -1.2308 -1.3977 -1.5035 -1.6101 -1.7251
-1.8160 -1.9032 -1.9403 -1.9857 -2.0460 -2.1007
-2.1563 -2.2176 -2.3224 -2.4364 -2.5737 -2.7397
-2.9140 -3.0949 -3.2544 -3.3935 -3.5298 -3.6495
-3.6986 -3.6801 -3.6819 -3.7144 -3.7654 -3.8322
-3.9064 -4.0139 -4.1345 -4.2968 -4.4498 -4.5898
-4.7271 -4.8217 -4.9423 -5.0165 -5.0675 -5.0879
-5.1110 -5.1667 -5.1240 -5.0981 -5.0962 -5.1110
-5.1287 -5.1194 -5.1556 -5.1370 -5.0786 -5.0378
-4.9793 -4.8977 -4.8152 -4.7030 -4.5518 -4.4322
-4.3005 -4.1706 -3.9777 -3.7292 -3.4899 -3.1533
-2.7925 -2.4373 -2.0793 -1.7501 -1.3884 -1.0434
-0.6947 -0.3386 -0.0167 0.2939 0.5740 0.8068
0.9997 1.2436 1.5190 1.7963 2.1098 2.4520
2.7775 3.0409 3.2848 3.4917 3.7411 3.9785
4.1677 4.3866 4.5573 4.7214 4.8281 4.8763
4.9143 4.9050 4.8707 4.8114 4.7465 4.6815
4.6250 4.5489 4.4571 4.4478 4.5090 4.5499
4.6009 4.6463 4.6630 4.6611 4.6361 4.6120
4.5489 4.5248 4.5786 4.6389 4.6936 4.7493
4.8021 4.8717 4.9978 5.0701 5.0961 5.1759
5.2176 5.1749 5.1184 5.0970 5.1230 5.1991
5.2872 5.3799 5.4931 5.5598 5.5478 5.4940
5.4003 5.3113 5.2844 5.2686 5.2380 5.1629
5.0878 5.0581 5.0442 5.0145 4.9301 4.8578
4.6936 4.4219 4.1112 3.7774 3.4843 3.1940
2.9742 2.7869 2.5615 2.3232 2.0580 1.8038
1.5303 1.2112 0.9414 0.7522 0.5500 0.3302
0.1410 -0.0324 -0.1873 -0.2949 -0.3459 -0.3422
-0.3181 -0.3014 -0.2967 -0.3283 -0.4145 -0.4961
-0.5035 -0.4516 -0.3644 -0.3051 -0.2605 -0.2281
-0.2040 -0.1715 -0.1984 -0.1817 -0.1502 -0.2058
-0.2522 -0.2958 -0.3830 -0.5499 -0.7446 -0.8782
-0.9737 -1.0850 -1.2167 -1.3354 -1.4003 -1.4597
-1.5292 -1.5608 -1.5793 -1.5682 -1.5867 -1.6859
-1.7815 -1.8269 -1.8937 -1.9920 -2.0792 -2.1459
-2.1654 -2.1552 -2.0977 -2.0207 -1.9215 -1.8232
-1.7462 -1.6294 -1.4875 -1.3131 -1.1388 -0.9746
-0.8401 -0.7223 -0.6129 -0.5749 -0.5786 -0.6055
-0.5610 -0.4284 -0.2818 -0.1158 0.0428 0.1865
0.2756 0.3219 0.3646 0.3766 0.3562 0.3145
0.2552 0.1355 0.0177 -0.0852 -0.2317 -0.3690
-0.5025 -0.6055 -0.7233 -0.8781 -0.9978 -1.1415
-1.2500 -1.3316 -1.4800 -1.6071 -1.7137 -1.8398
-1.9576 -2.0735 -2.1932 -2.3675 -2.5224 -2.6318
-2.8275 -3.0455 -3.2569 -3.4925 -3.7030 -3.8727
-4.0007 -4.1129 -4.2205 -4.3197 -4.4152 -4.5108
-4.5812 -4.6248 -4.6035 -4.5562 -4.4987 -4.4264
-4.4217 -4.4421 -4.4635 -4.4774 -4.4802 -4.4644
-4.4616 -4.4950 -4.4644 -4.4180 -4.4004 -4.3531
-4.2372 -4.0730 -3.8931 -3.7243 -3.5555 -3.3515
-3.1836 -3.0658 -2.9889 -2.9462 -2.9026 -2.8850
-2.9184 -2.9694 -3.0510 -3.1428 -3.2253 -3.2893
-3.3357 -3.4238 -3.4971 -3.5666 -3.6288 -3.6890
-3.7651 -3.8050 -3.8198 -3.8068 -3.7929 -3.7975
-3.7502 -3.6798 -3.6594 -3.5796 -3.4878 -3.4127
-3.3032 -3.1994 -3.1029 -3.0287 -2.9211 -2.8126
-2.7032 -2.5975 -2.5029 -2.4166 -2.3823 -2.3406
-2.3090 -2.2701 -2.2256 -2.1977 -2.1272 -2.0382
-1.9724 -1.9093 -1.8425 -1.7730 -1.6914 -1.5940
-1.4762 -1.3918 -1.3056 -1.2277 -1.1757 -1.1451
-1.1599 -1.1794 -1.2202 -1.2378 -1.1961 -1.0848
-0.9132 -0.6990 -0.4941 -0.3188 -0.1444 -0.0062
0.1616 0.3258 0.4853 0.7014 0.8655 1.0334
1.2096 1.3227 1.4275 1.5082 1.6140 1.7716
1.9386 2.1454 2.3494 2.5414 2.7204 2.8548
3.0004 3.1238 3.1971 3.2527 3.2833 3.2824
3.2824 3.2926 3.2815 3.2926 3.3056 3.3594
3.4762 3.5968 3.7730 3.9742 4.1792 4.3777
4.5307 4.6559 4.7857 4.8729 4.9341 4.9990
5.0000 4.9796 4.9434 4.9388 4.9833 5.0111
5.0584 5.0992 5.1669 5.2773 5.3876 5.4915
5.5666 5.6278 5.6575 5.6640 5.6770 5.7002
5.7169 5.6640 5.5833 5.4609 5.3329 5.2328
5.0751 4.9239 4.7514 4.5660 4.3990 4.2275
4.1162 4.0346 3.9576 3.8704 3.7962 3.7443
3.6979 3.6692 3.6321 3.5848 3.4948 3.3705
3.2166 3.0385 2.8391 2.6138 2.4033 2.1992
1.9813 1.7773 1.5909 1.3776 1.2051 1.0734
0.9157 0.7673 0.6171 0.4576 0.3045 0.1589
0.0106 -0.1601 -0.3196 -0.5014 -0.6868 -0.8473
-0.9864 -1.0838 -1.1969 -1.2971 -1.3703 -1.4334
-1.4826 -1.5095 -1.5540 -1.6198 -1.6161 -1.6448
-1.7302 -1.8090 -1.9082 -2.0047 -2.1215 -2.2523
-2.3571 -2.4563 -2.5927 -2.7234 -2.8189 -2.9126
-2.9868 -3.0415 -3.0443 -3.0378 -3.0666 -3.0601
-3.0378 -3.0063 -2.9311 -2.8449 -2.7253 -2.6214
-2.5611 -2.4711 -2.3710 -2.2439 -2.1308 -2.0482
-1.9082 -1.7700 -1.6745 -1.5706 -1.4241 -1.2627
-1.0847 -0.8611 -0.6441 -0.4253 -0.1823 0.0431
0.2851 0.5105 0.7090 0.9149 1.1003 1.2654
1.3535 1.4119 1.4694 1.4806 1.4769 1.4787
1.4750 1.4685 1.5010 1.5195 1.5492 1.5650
1.5372 1.5205 1.4314 1.2886 1.1291 0.9789
0.8472 0.7507 0.6543 0.5198 0.4085 0.2852
0.1692 0.0570 -0.0357 -0.0988 -0.1442 -0.1646
-0.1730 -0.1461 -0.1192 -0.0552 0.0274 0.1266
0.2722 0.3408 0.3019 0.2147 0.1331 0.0580
-0.0051 -0.0598 -0.0756 -0.0236 -0.0125 -0.0125
0.0635 0.2101 0.3956 0.5124 0.6098 0.6868
0.6552 0.6052 0.5579 0.5171 0.4790 0.4568
0.4642 0.4911 0.5523 0.6172 0.7165 0.8129
0.9047 0.9984 1.0383 1.0800 1.1227 1.1625
1.1681 1.1431 1.1570 1.1208 1.0476 0.9724
0.8741 0.7434 0.5634 0.3909 0.2129 0.0274
-0.1840 -0.3881 -0.5791 -0.7535 -0.8712 -0.9881
-1.0725 -1.1977 -1.3507 -1.4935 -1.6985 -1.8895
-2.0824 -2.2790 -2.4209 -2.5526 -2.6073 -2.5962
-2.5508 -2.4358 -2.3523 -2.2957 -2.2466 -2.1919
-2.1557 -2.1390 -2.0481 -1.9479 -1.8654 -1.7754
-1.6558 -1.5306 -1.4611 -1.4026 -1.3229 -1.2301
-1.1513 -1.0929 -1.0706 -1.0956 -1.1448 -1.2042
-1.2681 -1.3683 -1.4731 -1.5417 -1.6196 -1.7226
-1.7754 -1.7958 -1.8301 -1.8654 -1.9303 -2.0045
-2.0852 -2.1909 -2.2920 -2.3690 -2.4515 -2.5340
-2.5748 -2.5572 -2.5322 -2.5581 -2.5368 -2.4580
-2.4005 -2.3263 -2.2549 -2.1909 -2.1000 -2.0026
-1.9164 -1.8579 -1.7893 -1.7244 -1.6966 -1.6623
-1.6446 -1.6808 -1.7262 -1.7494 -1.8097 -1.8635
-1.8746 -1.8830 -1.8663 -1.8199 -1.7708 -1.7077
-1.6214 -1.5788 -1.5231 -1.4526 -1.4072 -1.3812
-1.3553 -1.2366 -1.1345 -1.0288 -0.8730 -0.7339
-0.5660 -0.4195 -0.2832 -0.1598 -0.1014 -0.0133
0.1101 0.2102 0.2918 0.3827 0.4996 0.6340
0.7787 0.8715 0.9744 1.0672 1.1757 1.3639
1.5179 1.6839 1.8174 1.9334 2.0910 2.2478
2.4258 2.5714 2.6920 2.8163 2.9396 3.0676
3.2262 3.3625 3.4664 3.5712 3.6138 3.6593
3.6908 3.6825 3.7437 3.8160 3.8624 3.8967
3.9718 4.0915 4.1879 4.3066 4.4309 4.4930
4.5014 4.5060 4.5023 4.4875 4.4504 4.3539
4.2482 4.0757 3.8531 3.6621 3.4877 3.3746
3.2985 3.2698 3.2494 3.2179 3.2633 3.3459
3.4080 3.4720 3.5341 3.5369 3.5063 3.4423
3.3366 3.2615 3.1901 3.1214 3.0955 3.0890
3.0843 3.1010 3.1094 3.0880 3.0639 3.0185
2.9870 2.9452 2.8887 2.8200 2.6948 2.5307
2.3192 2.0800 1.8119 1.5300 1.2212 0.8920
0.5980 0.3114 0.0165 -0.2933 -0.6355 -0.9990
-1.3320 -1.6250 -1.9190 -2.1843 -2.4068 -2.6415
-2.8557 -3.0551 -3.2860 -3.5095 -3.7145 -3.9000
-4.0762 -4.2227 -4.3553 -4.4499 -4.5000 -4.5538
-4.5528 -4.5148 -4.4694 -4.4193 -4.3729 -4.3813
-4.4443 -4.4944 -4.5445 -4.5612 -4.6131 -4.6938
-4.7504 -4.8042 -4.8153 -4.7995 -4.7457 -4.6650
-4.5361 -4.4230 -4.3673 -4.3367 -4.3460 -4.3071
-4.2644 -4.2264 -4.1531 -4.1336 -4.1318 -4.1067
-4.0566 -4.0066 -3.9621 -3.8749 -3.8016 -3.7673
-3.7432 -3.7135 -3.6634 -3.6310 -3.6106 -3.6170
-3.6439 -3.6885 -3.7311 -3.7339 -3.7153 -3.6801
-3.6894 -3.7172 -3.6922 -3.6245 -3.5076 -3.3945
-3.3175 -3.2016 -3.0550 -2.9456 -2.8361 -2.6887
-2.5857 -2.4884 -2.3854 -2.3502 -2.2982 -2.2324
-2.1508 -2.0618 -1.9940 -1.9097 -1.8067 -1.6528
-1.4710 -1.2456 -1.0128 -0.8144 -0.6159 -0.4221
-0.2579 -0.1197 0.0565 0.2169 0.3143 0.4080
0.5313 0.6741 0.8160 0.9440 1.0618 1.1749
1.2621 1.3391 1.4124 1.4726 1.5227 1.5821
1.6776 1.7805 1.8807 1.9753 2.0838 2.1914
2.2786 2.3750 2.4613 2.5512 2.6467 2.7413
2.8202 2.8823 2.9092 2.8962 2.8999 2.9250
2.9630 2.9973 3.0279 3.0864 3.1346 3.1633
3.2282 3.2793 3.3349 3.3980 3.4304 3.4360
3.4323 3.4610 3.4536 3.4072 3.3590 3.3256
3.2895 3.2450 3.2097 3.1837 3.1671 3.1216
3.1402 3.1893 3.2199 3.2950 3.3572 3.4416
3.4954 3.5195 3.5631 3.5723 3.6030 3.6196
3.6141 3.5918 3.5176 3.4703 3.4574 3.4462
3.4499 3.4648 3.5269 3.5816 3.6122 3.6688
3.7189 3.7597 3.8153 3.8673 3.8886 3.9368
3.9665 3.9934 4.0556 4.0732 4.1140 4.1344
4.1205 4.1177 4.0787 4.0463 3.9795 3.8701
3.7569 3.6364 3.5140 3.3702 3.2682 3.1717
3.0234 2.8611 2.6756 2.5077 2.3120 2.0811
1.8827 1.6907 1.4700 1.2353 1.0081 0.7670
0.5481 0.3413 0.1391 -0.0751 -0.2986 -0.4488
-0.6241 -0.8161 -0.9487 -1.0832 -1.2418 -1.3939
-1.4885 -1.5812 -1.6953 -1.7760 -1.8353 -1.8668
-1.9086 -1.9614 -1.9605 -1.9392 -1.8854 -1.8418
-1.8093 -1.7583 -1.7565 -1.7871 -1.8251 -1.8501
-1.8594 -1.8678 -1.8446 -1.8167 -1.8103 -1.8260
-1.8724 -1.9651 -2.0792 -2.1784 -2.2953 -2.3890
-2.4427 -2.4956 -2.5698 -2.6291 -2.6839 -2.7655
-2.7951 -2.8267 -2.8907 -2.9231 -2.9333 -2.9222
-2.8972 -2.8721 -2.8443 -2.8146 -2.7822 -2.7497
-2.7135 -2.7033 -2.7237 -2.7228 -2.7432 -2.7692
-2.7840 -2.7961 -2.7923 -2.7821 -2.7627 -2.7775
-2.8229 -2.8591 -2.8944 -2.9435 -2.9852 -3.0418
-3.1049 -3.1475 -3.1494 -3.1243 -3.0808 -3.0047
-2.9416 -2.8943 -2.8554 -2.8452 -2.8860 -2.9435
-3.0149 -3.0668 -3.0770 -3.0585 -2.9899 -2.9620
-2.9249 -2.8628 -2.8340 -2.7830 -2.7024 -2.6013
-2.5261 -2.4612 -2.3796 -2.3082 -2.2646 -2.2600
-2.2322 -2.1876 -2.1533 -2.0958 -2.0290 -1.9799
-1.9159 -1.8519 -1.8092 -1.7527 -1.6980 -1.6683
-1.6683 -1.6562 -1.6488 -1.6831 -1.7165 -1.7508
-1.7545 -1.7387 -1.7332 -1.6942 -1.6729 -1.6451
-1.5968 -1.5709 -1.5208 -1.4661 -1.3845 -1.3075
-1.2732 -1.2398 -1.2287 -1.2157 -1.2212 -1.1981
-1.1443 -1.0784 -0.9755 -0.8772 -0.7343 -0.5906
-0.4506 -0.2855 -0.1491 -0.0008 0.1541 0.3201
0.5149 0.7208 0.9127 1.0908 1.2967 1.5286
1.7984 2.0414 2.2658 2.5088 2.7129 2.9252
3.0810 3.1877 3.3287 3.4335 3.5550 3.6421
3.6829 3.7404 3.8128 3.9148 3.9565 3.9435
3.9213 3.8823 3.8081 3.7386 3.6978 3.6347
3.5540 3.4734 3.3880 3.3064 3.2619 3.2749
3.3537 3.4483 3.5401 3.6180 3.6904 3.7609
3.7887 3.8722 3.9677 4.0613 4.1856 4.2802
4.3813 4.4629 4.5482 4.6159 4.6540 4.7152
4.7458 4.7987 4.8840 4.9331 5.0240 5.1362
5.2169 5.3097 5.3931 5.4803 5.5564 5.6055
5.6547 5.6658 5.6751 5.6806 5.6519 5.6194
5.5573 5.4488 5.3431 5.2420 5.1177 5.0268
4.9498 4.8395 4.7857 4.7671 4.7282 4.7347
4.7458 4.7356 4.7152 4.6772 4.6633 4.6559
4.6280 4.6002 4.5900 4.5585 4.5056 4.4695
4.4222 4.3721 4.2914 4.2181 4.1857 4.1347
4.0902 4.0512 4.0002 3.9158 3.8333 3.7600
3.6450 3.4790 3.3213 3.1711 2.9615 2.7760
2.5701 2.3439 2.1537 1.9210 1.6910 1.4740
1.2606 1.0297 0.7867 0.5744 0.3601 0.1923
0.0504 -0.1054 -0.2890 -0.4884 -0.6915 -0.8946
-1.0838 -1.2888 -1.4362 -1.5540 -1.6764 -1.7460
-1.7961 -1.8786 -1.9853 -2.0632 -2.1197 -2.1689
-2.2412 -2.3099 -2.3581 -2.4091 -2.4453 -2.4768
-2.4740 -2.4898 -2.4916 -2.4610 -2.4332 -2.3609
-2.3080 -2.2431 -2.1652 -2.1281 -2.0669 -2.0205
-2.0353 -2.0557 -2.0900 -2.1717 -2.2904 -2.4693
-2.6381 -2.8041 -3.0054 -3.1566 -3.3086 -3.4672
-3.5915 -3.6926 -3.7492 -3.7965 -3.8558 -3.9068
-3.9680 -4.0478 -4.1006 -4.1146 -4.0877 -4.0552
-4.0162 -4.0060 -4.0181 -4.0209 -4.0654 -4.0904
-4.1275 -4.2082 -4.2555 -4.2444 -4.1693 -4.0283
-3.8382 -3.6351 -3.4635 -3.3606 -3.2919 -3.2465
-3.2205 -3.2233 -3.2418 -3.2632 -3.2836 -3.3123
-3.3559 -3.3466 -3.3448 -3.3494 -3.3336 -3.3642
-3.4041 -3.4357 -3.4523 -3.4709 -3.4792 -3.4514
-3.4088 -3.3772 -3.3772 -3.3754 -3.4060 -3.4616
-3.4876 -3.5386 -3.6193 -3.7083 -3.8085 -3.9244
-4.0542 -4.1831 -4.2759 -4.3269 -4.3315 -4.2935
-4.1970 -4.0236 -3.8205 -3.5840 -3.3178 -3.0517
-2.8365 -2.6714 -2.5527 -2.5156 -2.4897 -2.4934
-2.5397 -2.5490 -2.5370 -2.5221 -2.5082 -2.4804
-2.4442 -2.4461 -2.4479 -2.4312 -2.4006 -2.3431
-2.2810 -2.2355 -2.2105 -2.1882 -2.2059 -2.2801
-2.3644 -2.4767 -2.6399 -2.8550 -3.0350 -3.1407
-3.1982 -3.1778 -3.1360 -3.0665 -2.9904 -2.9608
-2.9005 -2.8068 -2.7178 -2.6185 -2.5258 -2.4303
-2.3431 -2.3023 -2.2188 -2.0936 -2.0120 -1.9693
-1.9285 -1.8859 -1.8441 -1.7894 -1.7060 -1.5659
-1.4537 -1.3814 -1.2571 -1.0762 -0.8435 -0.6218
-0.4447 -0.3083 -0.1924 -0.0672 0.0348 0.1090
0.1313 0.1229 0.0821 -0.0069 -0.0598 -0.0626
-0.0765 -0.0718 -0.0199 0.0357 0.1341 0.2518
0.3900 0.5412 0.6349 0.7369 0.8231 0.8945
0.9724 1.0309 1.0661 1.0717 1.1143 1.1626
1.2015 1.2581 1.3638 1.5020 1.6448 1.8275
1.9768 2.0955 2.2430 2.4081 2.5936 2.8004
2.9859 3.1500 3.3077 3.4440 3.5423 3.6174
3.6916 3.7018 3.7185 3.7324 3.7352 3.7974
3.8716 3.9949 4.1127 4.1869 4.2481 4.2694
4.2741 4.2768 4.2759 4.2574 4.2435 4.2091
4.1526 4.1210 4.0561 3.9866 3.9485 3.8975
3.8586 3.8298 3.8363 3.8660 3.8725 3.8799
3.8697 3.8373 3.7761 3.7213 3.7139 3.6842
3.6917 3.7482 3.7826 3.8094 3.8141 3.8447
3.8846 3.9439 3.9949 4.0135 4.0617 4.0988
4.1470 4.1990 4.2120 4.1925 4.1925 4.2157
4.2351 4.2537 4.2556 4.2500 4.2259 4.2120
4.1767 4.0970 3.9959 3.8531 3.6592 3.3894
3.1241 2.8839 2.6140 2.3507 2.0576 1.7627
1.5308 1.2971 1.1098 0.9568 0.8232 0.7027
0.5413 0.4161 0.2742 0.1685 0.0999 0.0433
0.0405 -0.0022 -0.0995 -0.2498 -0.3703 -0.5030
-0.6319 -0.6894 -0.7691 -0.8238 -0.8581 -0.8832
-0.9175 -0.9509 -0.9388 -0.9676 -1.0418 -1.1623
-1.3061 -1.4563 -1.6437 -1.8412 -2.0832 -2.3318
-2.5803 -2.8205 -3.0357 -3.2258 -3.3334 -3.4558
-3.5430 -3.5560 -3.5346 -3.4836 -3.4567 -3.3853
-3.3287 -3.3334 -3.3556 -3.3695 -3.3556 -3.3566
-3.4168 -3.4864 -3.5476 -3.6580 -3.7173 -3.7488
-3.7832 -3.7424 -3.6719 -3.5810 -3.5059 -3.4613
-3.4382 -3.4391 -3.4363 -3.4938 -3.5448 -3.5327
-3.5532 -3.5884 -3.6607 -3.7535 -3.8564 -4.0039
-4.1346 -4.2515 -4.3470 -4.4073 -4.4388 -4.4351
-4.4166 -4.4017 -4.3795 -4.3247 -4.2756 -4.2635
-4.2376 -4.2153 -4.2181 -4.1903 -4.1661 -4.1513
-4.1207 -4.1170 -4.1114 -4.0762 -4.0465 -3.9927
-3.9028 -3.8434 -3.7720 -3.7071 -3.6514 -3.5123
-3.3519 -3.1543 -2.9466 -2.7722 -2.5552 -2.3679
-2.2306 -2.0980 -1.9951 -1.9264 -1.8587 -1.8031
-1.7474 -1.6760 -1.5879 -1.4590 -1.3366 -1.1919
-1.0305 -0.9137 -0.8321 -0.7903 -0.7532 -0.7199
-0.6605 -0.5613 -0.4565 -0.2923 -0.1235 0.0555
0.2836 0.5173 0.7612 0.9773 1.1999 1.3807
1.4605 1.5115 1.5282 1.5180 1.5115 1.5393
1.5941 1.6673 1.7387 1.7990 1.8769 1.9409
2.0123 2.0605 2.0856 2.1403 2.1895 2.2405
2.2859 2.3230 2.3564 2.3926 2.4195 2.4204
2.4519 2.4937 2.5066 2.5002 2.5011 2.5196
2.5345 2.5892 2.6411 2.6884 2.7635 2.8275
2.9286 2.9954 3.0483 3.1085 3.1262 3.1577
3.1623 3.2087 3.2440 3.2263 3.2347 3.2041
3.1679 3.1466 3.1169 3.0900 3.0427 3.0028
2.9852 2.9667 2.9620 2.9277 2.9064 2.8860
2.8591 2.8767 2.8628 2.8415 2.7775 2.6829
2.5864 2.4752 2.4093 2.3407 2.2489 2.2071
2.2266 2.2980 2.4047 2.5141 2.5985 2.5967
2.5382 2.5123 2.5039 2.5030 2.5392 2.5531
2.5262 2.4835 2.4279 2.4047 2.4223 2.4474
2.4696 2.4511 2.3964 2.3379 2.2804 2.2359
2.2248 2.2684 2.3222 2.3815 2.4270 2.4539
2.5021 2.5401 2.5642 2.5763 2.6264 2.6746
2.6968 2.7302 2.7432 2.7887 2.8276 2.8387
2.8629 2.8925 2.9306 2.9324 2.9371 2.9222
2.8703 2.8295 2.7729 2.6959 2.5624 2.3945
2.2387 2.0996 1.9791 1.8613 1.7537 1.6304
1.4940 1.3874 1.3401 1.3048 1.2399 1.2028
1.1685 1.0711 0.9747 0.8792 0.7540 0.6260
0.4618 0.3051 0.1632 0.0093 -0.1818 -0.3979
-0.5861 -0.7763 -0.9246 -1.0025 -1.0545 -1.1509
-1.2724 -1.3624 -1.4662 -1.5729 -1.6638 -1.7686
-1.8762 -1.9912 -2.1024 -2.1757 -2.2443 -2.3130
-2.3742 -2.4586 -2.5680 -2.6969 -2.8546 -2.9788
-3.1050 -3.2367 -3.3414 -3.4666 -3.5705 -3.6660
-3.7449 -3.8033 -3.8636 -3.9285 -3.9897 -4.0351
-4.1075 -4.1770 -4.2076 -4.2512 -4.3041 -4.3282
-4.3709 -4.3709 -4.3560 -4.3866 -4.3922 -4.3977
-4.3755 -4.3161 -4.2178 -4.1464 -4.0880 -3.9934
-3.9823 -3.9619 -3.9377 -3.9554 -3.9470 -3.9350
-3.8969 -3.8635 -3.7875 -3.6799 -3.5816 -3.4379
-3.3043 -3.2264 -3.2236 -3.2208 -3.1856 -3.1596
-3.0706 -2.9741 -2.8805 -2.7877 -2.7182 -2.5920
-2.4733 -2.3630 -2.2619 -2.1914 -2.1107 -2.0263
-1.9225 -1.7963 -1.6396 -1.4745 -1.3206 -1.1722
-1.0386 -0.9542 -0.8819 -0.8031 -0.7576 -0.6500
-0.4961 -0.3458 -0.2197 -0.1103 -0.0277 -0.0036
0.0335 0.0557 0.0900 0.1466 0.1856 0.2394
0.2728 0.3275 0.4239 0.4963 0.5501 0.6187
0.6892 0.7745 0.9025 1.0230 1.1204 1.1881
1.2178 1.2493 1.3189 1.4144 1.5396 1.6500
1.7195 1.7882 1.8781 2.0330 2.1814 2.2992
2.4058 2.4485 2.4327 2.4049 2.3409 2.2445
2.1907 2.1304 2.0590 2.0108 1.9291 1.8373
1.7390 1.6046 1.4580 1.3096 1.2011 1.1344
1.0592 0.9609 0.8793 0.8181 0.7745 0.7903
0.8255 0.8691 0.9099 0.9257 0.9350 0.9962
1.0982 1.2030 1.3347 1.4618 1.5944 1.7038
1.7789 1.8346 1.8513 1.8457 1.8095 1.7706
1.7270 1.7149 1.7678 1.8568 1.9728 2.0423
2.0933 2.1378 2.1564 2.1722 2.2028 2.2779
2.3233 2.3521 2.3734 2.4077 2.4179 2.3846
2.4068 2.3985 2.3400 2.2983 2.2436 2.1592
2.0627 1.9450 1.8550 1.7743 1.7029 1.6473
1.5731 1.5684 1.5397 1.5072 1.5017 1.4553
1.4321 1.3867 1.2921 1.1354 0.9378 0.7431
0.5121 0.3025 0.1245 -0.0499 -0.1630 -0.2252
-0.2845 -0.3476 -0.4125 -0.4551 -0.4941 -0.5321
-0.5284 -0.5293 -0.5803 -0.6313 -0.6963 -0.8029
-0.9059 -1.0051 -1.1229 -1.2249 -1.3148 -1.4419
-1.5689 -1.6914 -1.8333 -1.9418 -2.0132 -2.0670
-2.1161 -2.1597 -2.2116 -2.2803 -2.3554 -2.4435
-2.5158 -2.5900 -2.6967 -2.8107 -2.9146 -2.9971
-3.0704 -3.1520 -3.1965 -3.1984 -3.1965 -3.2039
-3.2095 -3.1928 -3.2169 -3.2605 -3.3125 -3.3811
-3.3950 -3.4265 -3.4645 -3.4664 -3.4673 -3.4126
-3.3440 -3.2828 -3.1872 -3.0954 -2.9916 -2.8923
-2.7903 -2.6818 -2.5807 -2.4379 -2.3118 -2.1810
-2.0595 -1.9844 -1.8824 -1.7822 -1.6653 -1.5207
-1.3769 -1.2564 -1.1627 -1.0662 -0.9874 -0.9243
-0.8539 -0.7685 -0.6990 -0.6211 -0.5005 -0.3623
-0.2427 -0.1546 -0.0674 0.0142 0.0847 0.1747
0.2646 0.3212 0.3351 0.3249 0.3453 0.4112
0.4566 0.4937 0.5530 0.5744 0.5447 0.4761
0.4214 0.3704 0.3370 0.3295 0.3027 0.3203
0.3166 0.3064 0.3388 0.3323 0.3360 0.3843
0.4446 0.5252 0.6143 0.6644 0.7534 0.8406
0.8906 1.0242 1.1410 1.2273 1.3302 1.4267
1.5361 1.6270 1.7531 1.8932 1.9831 2.0620
2.1677 2.2975 2.4422 2.5888 2.6852 2.7770
2.8577 2.9031 2.9662 2.9987 3.0052 2.9783
2.9115 2.8373 2.7603 2.6926 2.5721 2.4617
2.3671 2.2308 2.1056 1.9860 1.8858 1.7569
1.6354 1.5593 1.4740 1.4054 1.3358 1.2450
1.1559 1.0956 1.0279 0.9621 0.9482 0.9575
0.9640 0.9760 1.0122 1.0493 1.1096 1.2051
1.2737 1.3841 1.5056 1.6085 1.7727 1.9155
2.0620 2.1826 2.2670 2.3736 2.4265 2.4580
2.4692 2.4497 2.3894 2.3041 2.2410 2.1928
2.1539 2.1297 2.1372 2.1752 2.2197 2.2661
2.3106 2.3431 2.3885 2.4135 2.4033 2.3996
2.3718 2.3301 2.3208 2.3115 2.3143 2.3236
2.2995 2.2939 2.2939 2.2874 2.2679 2.2503
2.2364 2.2197 2.2615 2.3032 2.3616 2.4340
2.4785 2.5239 2.5490 2.6018 2.6491 2.7066
2.7743 2.8086 2.8328 2.8161 2.8059 2.7901
2.7595 2.7604 2.7734 2.7892 2.8244 2.8448
2.8263 2.8207 2.8031 2.7975 2.8198 2.8383
2.8699 2.8745 2.8717 2.8727 2.8597 2.8393
2.7938 2.7456 2.7252 2.7391 2.7530 2.7734
2.7929 2.7799 2.7484 2.6992 2.6334 2.5601
2.5156 2.4479 2.3682 2.2893 2.1836 2.0964
1.9805 1.8553 1.7218 1.6012 1.5214 1.4092
1.3211 1.2673 1.2043 1.1496 1.1143 1.0995
1.0707 1.0531 1.0262 0.9761 0.9177 0.8463
0.7526 0.5922 0.4577 0.3177 0.1637 0.0422
-0.1043 -0.2397 -0.3871 -0.5504 -0.7414 -0.9241
-1.1040 -1.3145 -1.5241 -1.7718 -1.9925 -2.2049
-2.4052 -2.5962 -2.8086 -3.0089 -3.2417 -3.4754
-3.6943 -3.9168 -4.1181 -4.2637 -4.4149 -4.5855
-4.6987 -4.8044 -4.9064 -4.9407 -4.9481 -5.0038
-5.0696 -5.1345 -5.2245 -5.2922 -5.3395 -5.4007
-5.4638 -5.5463 -5.6279 -5.6659 -5.6724 -5.6409
-5.6168 -5.6038 -5.5472 -5.4879 -5.4081 -5.2764
-5.1503 -5.0232 -4.8915 -4.7552 -4.6383 -4.5391
-4.4232 -4.3750 -4.3666 -4.3805 -4.3898 -4.3712
-4.3638 -4.3295 -4.2915 -4.2266 -4.1644 -4.1357
-4.0661 -4.0012 -3.9632 -3.9038 -3.8890 -3.9084
-3.9205 -3.9298 -3.9168 -3.8945 -3.8240 -3.7610
-3.7434 -3.7443 -3.7832 -3.8287 -3.8778 -3.9381
-3.9724 -3.9780 -4.0179 -4.0392 -4.0411 -4.0475
-4.0030 -3.9696 -3.9214 -3.8454 -3.7823 -3.7081
-3.6330 -3.5504 -3.4623 -3.3548 -3.2592 -3.1665
-3.0302 -2.9365 -2.8595 -2.7779 -2.7241 -2.6620
-2.5896 -2.4987 -2.4088 -2.3068 -2.2196 -2.1287
-2.0517 -2.0054 -1.9126 -1.8764 -1.8533 -1.8106
-1.8291 -1.8347 -1.8301 -1.8329 -1.8115 -1.7651
-1.7299 -1.7067 -1.6576 -1.5926 -1.5370 -1.4814
-1.4368 -1.4322 -1.3895 -1.3042 -1.2439 -1.1345
-1.0093 -0.9128 -0.7923 -0.6764 -0.5474 -0.4093
-0.2905 -0.1793 -0.0763 0.0470 0.1759 0.2928
0.4161 0.5080 0.5803 0.6313 0.6526 0.7101
0.7630 0.8020 0.8697 0.9160 0.9587 1.0551
1.1377 1.1850 1.2360 1.2787 1.3148 1.3362
1.3556 1.3844 1.4085 1.4363 1.4716 1.4938
1.5216 1.5448 1.5550 1.5625 1.5513 1.5708
1.6005 1.6431 1.7090 1.7581 1.7795 1.8129
1.8509 1.8388 1.8518 1.8657 1.8537 1.8342
1.8008 1.7999 1.7767 1.7387 1.7359 1.7136
1.7062 1.7340 1.7767 1.8620 1.9474 2.0206
2.1050 2.1903 2.3063 2.4667 2.6466 2.8321
3.0111 3.2225 3.4414 3.6538 3.9051 4.1425
4.3800 4.5831 4.7463 4.9188 5.0718 5.2332
5.3695 5.4882 5.5875 5.6765 5.7637 5.8258
5.8870 5.8861 5.9009 5.9074 5.8369 5.7674
5.6682 5.5467 5.4382 5.3241 5.1692 5.0236
4.8919 4.7241 4.5618 4.3930 4.2557 4.1444
4.0304 3.9385 3.8412 3.7308 3.6306 3.5361
3.4275 3.3450 3.2690 3.1874 3.1410 3.1039
3.0677 3.0482 3.0214 3.0084 2.9991 2.9694
2.9397 2.9240 2.9082 2.8720 2.8405 2.8164
2.8155 2.7979 2.7812 2.7839 2.7533 2.7394
2.6884 2.6207 2.5781 2.5187 2.4927 2.4881
2.4742 2.4584 2.4343 2.3694 2.2628 2.1515
2.0318 1.9076 1.7926 1.6748 1.5143 1.3502
1.2166 1.0377 0.8559 0.7177 0.5730 0.4423
0.3143 0.1882 0.1010 0.0092 -0.0928 -0.1893
-0.3136 -0.4221 -0.5222 -0.6604 -0.8561 -1.0759
-1.2762 -1.5016 -1.6871 -1.8698 -2.0654 -2.2175
-2.3854 -2.5050 -2.6209 -2.7220 -2.7675 -2.8463
-2.8955 -2.9530 -3.0105 -3.0494 -3.0902 -3.0865
-3.0726 -3.0735 -3.0809 -3.0856 -3.1050 -3.1356
-3.1848 -3.2404 -3.2683 -3.2942 -3.3165 -3.3313
-3.3397 -3.3564 -3.4092 -3.4259 -3.4741 -3.5446
-3.5613 -3.5873 -3.6216 -3.6791 -3.7060 -3.7514
-3.8247 -3.8544 -3.8868 -3.8989 -3.9295 -3.9721
-4.0092 -4.0547 -4.0844 -4.0964 -4.0779 -4.0510
-4.0222 -3.9814 -3.9397 -3.9211 -3.9452 -3.9647
-3.9814 -4.0148 -4.0176 -3.9907 -3.9601 -3.9406
-3.9137 -3.8859 -3.8571 -3.8312 -3.8061 -3.7523
-3.7217 -3.6967 -3.6753 -3.7115 -3.7421 -3.7458
-3.7514 -3.7254 -3.6893 -3.6633 -3.6345 -3.6327
-3.6076 -3.5557 -3.5010 -3.4203 -3.3480 -3.2951
-3.2524 -3.1986 -3.1643 -3.1050 -3.0206 -2.9621
-2.8954 -2.8351 -2.7145 -2.6097 -2.5439 -2.4326
-2.3575 -2.2740 -2.1850 -2.1126 -1.9726 -1.8298
-1.6823 -1.4996 -1.3382 -1.1694 -1.0266 -0.9200
-0.8059 -0.7048 -0.6213 -0.5332 -0.4294 -0.3394
-0.2328 -0.1363 -0.0640 -0.0065 0.0279 0.1048
0.1864 0.2384 0.2959 0.3385 0.3432 0.3617
0.4062 0.4508 0.5203 0.5982 0.6344 0.6372
0.6631 0.6919 0.6919 0.6965 0.6678 0.6251
0.6186 0.6288 0.6604 0.7160 0.7763 0.8069
0.8347 0.8709 0.8969 0.9451 1.0054 1.0657
1.1528 1.2548 1.3263 1.4153 1.5284 1.6054
1.6620 1.7204 1.8011 1.8410 1.8725 1.9291
1.9365 1.9476 1.9569 1.9755 2.0005 1.9931
2.0061 1.9968 1.9708 1.9421 1.8660 1.7946
1.7510 1.7028 1.6843 1.6750 1.6509 1.6286
1.6045 1.5952 1.5665 1.5238 1.4942 1.4413
1.3866 1.3282 1.2809 1.2141 1.1000 1.0230
0.9275 0.8403 0.7893 0.7263 0.7198 0.7068
0.6669 0.6437 0.6419 0.6419 0.6317 0.6660
0.7040 0.7448 0.8097 0.8608 0.9201 0.9581
0.9758 1.0416 1.1084 1.1529 1.2391 1.3393
1.4330 1.5053 1.5535 1.6027 1.6240 1.6750
1.7094 1.7019 1.6741 1.6509 1.6788 1.6732
1.6556 1.6556 1.6648 1.6593 1.6398 1.6185
1.5851 1.5888 1.5703 1.5452 1.5406 1.5285
1.5397 1.5563 1.5471 1.5406 1.5313 1.5026
1.4933 1.4766 1.4367 1.3894 1.3375 1.2689
1.1826 1.1242 1.1131 1.1279 1.1455 1.1613
1.1576 1.1520 1.0973 1.0213 0.9517 0.8692
0.8460 0.8246 0.8395 0.8849 0.9155 0.9712
1.0120 1.0120 0.9749 0.9369 0.9026 0.8395
0.7866 0.7727 0.7430 0.7774 0.8367 0.8534
0.9063 0.9248 0.9248 0.8859 0.7700 0.6828
0.6596 0.6244 0.5706 0.5873 0.6197 0.6095
0.5900 0.5251 0.4203 0.3276 0.2172 0.1050
0.0206 -0.0730 -0.1834 -0.3429 -0.5303 -0.6796
-0.7769 -0.8558 -0.9142 -0.9606 -1.0218 -1.0617
-1.0719 -1.0617 -1.0329 -0.9717 -0.9142 -0.9040
-0.9040 -0.9049 -0.9198 -0.9207 -0.9513 -1.0273
-1.0987 -1.1739 -1.2212 -1.2258 -1.2063 -1.1943
-1.2110 -1.2314 -1.2480 -1.2518 -1.2351 -1.2555
-1.2870 -1.3232 -1.4307 -1.5272 -1.5745 -1.6162
-1.5986 -1.5532 -1.5773 -1.6311 -1.6923 -1.7386
-1.7544 -1.7915 -1.7943 -1.7581 -1.7368 -1.6969
-1.6422 -1.5745 -1.4632 -1.3556 -1.2712 -1.1914
-1.1414 -1.1135 -1.0755 -1.0264 -0.9475 -0.8511
-0.7825 -0.7231 -0.6350 -0.5098 -0.3929 -0.2854
-0.1648 -0.1054 -0.0720 -0.0108 0.0392 0.1301
0.2544 0.3555 0.4705 0.5920 0.6829 0.7320
0.7691 0.7645 0.6968 0.6282 0.5781 0.5299
0.5104 0.5428 0.5994 0.6643 0.7079 0.7506
0.8044 0.8322 0.8647 0.9166 0.9732 1.0093
1.0335 1.0455 1.0344 1.0195 1.0066 1.0140
1.0019 0.9769 0.9695 0.9500 0.9685 1.0121
1.0696 1.1503 1.2180 1.2978 1.3683 1.4091
1.4666 1.4935 1.5037 1.5528 1.6020 1.7003
1.8209 1.9498 2.1241 2.2744 2.3856 2.4700
2.5294 2.5693 2.6119 2.6296 2.6463 2.6973
2.7464 2.7928 2.8392 2.8930 2.9421 2.9792
2.9968 3.0117 3.0033 2.9542 2.9189 2.8865
2.8651 2.8345 2.7891 2.7715 2.7733 2.7845
2.7752 2.7706 2.7594 2.7103 2.6824 2.6648
2.6110 2.5489 2.5433 2.5535 2.5508 2.5953
2.5934 2.5888 2.6463 2.6324 2.6092 2.6083
2.6231 2.6352 2.6157 2.6027 2.5498 2.4942
2.4265 2.3505 2.2642 2.1483 2.0630 1.9674
1.8840 1.8042 1.7208 1.6466 1.5427 1.4398
1.3257 1.1884 1.0169 0.8481 0.7154 0.5958
0.4799 0.4224 0.4048 0.3297 0.2601 0.1525
-0.0255 -0.2490 -0.5236 -0.7814 -1.0188 -1.2145
-1.3323 -1.4176 -1.4908 -1.5270 -1.5882 -1.6735
-1.7524 -1.8433 -1.9369 -2.0454 -2.1660 -2.2726
-2.3570 -2.4136 -2.4359 -2.4516 -2.4331 -2.3951
-2.3997 -2.4117 -2.4600 -2.5212 -2.5972 -2.6983
-2.7660 -2.8337 -2.9051 -2.9413 -2.9617 -2.9969
-3.0118 -2.9969 -3.0294 -3.0822 -3.1583 -3.2575
-3.3326 -3.4347 -3.5181 -3.6072 -3.7027 -3.7583
-3.8279 -3.8678 -3.8928 -3.9048 -3.9086 -3.8993
-3.8789 -3.8854 -3.8881 -3.9002 -3.8872 -3.9197
-3.9568 -3.9558 -3.9809 -3.9475 -3.9150 -3.8529
-3.7685 -3.7166 -3.6414 -3.6071 -3.6016 -3.6006
-3.6081 -3.5951 -3.5728 -3.5116 -3.3957 -3.2881
-3.1453 -2.9635 -2.8123 -2.6472 -2.4850 -2.3403
-2.1863 -2.0287 -1.8320 -1.6623 -1.5139 -1.3721
-1.3043 -1.2561 -1.2357 -1.2376 -1.2172 -1.1773
-1.1068 -1.0141 -0.8787 -0.7247 -0.5893 -0.4650
-0.3853 -0.3296 -0.2656 -0.2276 -0.2016 -0.2128
-0.2554 -0.2749 -0.2638 -0.2341 -0.2137 -0.1784
-0.1163 -0.0755 -0.0579 -0.0254 0.0080 0.0571
0.1369 0.2380 0.3557 0.4652 0.5718 0.6664
0.7907 0.9113 0.9845 1.0884 1.1719 1.2080
1.2535 1.3036 1.3277 1.3462 1.3416 1.3379
1.3351 1.3129 1.3370 1.3453 1.3583 1.3806
1.3843 1.4390 1.4687 1.4687 1.4844 1.5104
1.5178 1.5364 1.5855 1.5976 1.6569 1.7339
1.8155 1.9305 2.0214 2.1114 2.1744 2.2310
2.2598 2.2514 2.2347 2.2060 2.1874 2.1754
2.1633 2.1318 2.1448 2.1642 2.1197 2.1132
2.1244 2.1587 2.2264 2.2570 2.3108 2.3544
2.3868 2.4128 2.3841 2.3303 2.2347 2.1476
2.0363 1.9677 1.9695 1.9556 1.9788 1.9779
1.9908 2.0150 2.0094 2.0326 2.0307 2.0335
2.0409 2.0289 2.0381 2.0428 2.0409 2.0372
2.0215 2.0038 1.9686 1.9584 1.9463 1.8926
1.8657 1.8258 1.7664 1.7256 1.6802 1.6570
1.6412 1.6375 1.6895 1.7062 1.6997 1.7043
1.7136 1.7386 1.7340 1.7451 1.7664 1.8017
1.8768 1.9213 1.9473 1.9733 1.9677 1.9241
1.8193 1.7247 1.6663 1.5930 1.5318 1.4882
1.4762 1.4799 1.4734 1.4855 1.5012 1.4920
1.5040 1.5448 1.5430 1.5281 1.5133 1.4502
1.3528 1.2388 1.1349 1.0153 0.8678 0.7500
0.6193 0.4867 0.3605 0.1982 0.0489 -0.0800
-0.2191 -0.3313 -0.4361 -0.5391 -0.6068 -0.6837
-0.7607 -0.8219 -0.8989 -0.9870 -1.0621 -1.1363
-1.2355 -1.3644 -1.4600 -1.5128 -1.5740 -1.6250
-1.6547 -1.6751 -1.7039 -1.7048 -1.7048 -1.7057
-1.7159 -1.7270 -1.7001 -1.7113 -1.7066 -1.7057
-1.7298 -1.7428 -1.7994 -1.8532 -1.9107 -1.9682
-2.0182 -2.0711 -2.1249 -2.2074 -2.2807 -2.3771
-2.4866 -2.5960 -2.7073 -2.7833 -2.8612 -2.9206
-2.9605 -3.0031 -3.0143 -3.0319 -3.0653 -3.0949
-3.1367 -3.1441 -3.1191 -3.0931 -3.0458 -2.9772
-2.9057 -2.8501 -2.7963 -2.7518 -2.7063 -2.6414
-2.5533 -2.4272 -2.2899 -2.1684 -2.0442 -1.9023
-1.7715 -1.6667 -1.5610 -1.4682 -1.3968 -1.2930
-1.2021 -1.1334 -1.0611 -0.9916 -0.9053 -0.8543
-0.8070 -0.7680 -0.7569 -0.7337 -0.7569 -0.7615
-0.7207 -0.6660 -0.5742 -0.5241 -0.4852 -0.4481
-0.4425 -0.3989 -0.3906 -0.3887 -0.3785 -0.3943
-0.4045 -0.4221 -0.4138 -0.4258 -0.4388 -0.4314
-0.4286 -0.3971 -0.3878 -0.4054 -0.4147 -0.4202
-0.4165 -0.4406 -0.4703 -0.4722 -0.5158 -0.5575
-0.6029 -0.6910 -0.7782 -0.8802 -0.9924 -1.1213
-1.2475 -1.3578 -1.4914 -1.6110 -1.7167 -1.7891
-1.7650 -1.6796 -1.5721 -1.4543 -1.3541 -1.2363
-1.0870 -0.9377 -0.7940 -0.7012 -0.6066 -0.5000
-0.4415 -0.3636 -0.3089 -0.2542 -0.1754 -0.1281
-0.0706 -0.0427 -0.0196 -0.0019 -0.0474 -0.1141
-0.1605 -0.2078 -0.2709 -0.3080 -0.3729 -0.3859
-0.3738 -0.3812 -0.3488 -0.3488 -0.3237 -0.2894
-0.2634 -0.2282 -0.2570 -0.3265 -0.4109 -0.5064
-0.6084 -0.7114 -0.7726 -0.8050 -0.8421 -0.8468
-0.8227 -0.7948 -0.7568 -0.6706 -0.5713 -0.4721
-0.3636 -0.2560 -0.1354 -0.0446 0.0510 0.1474
0.2086 0.2225 0.2318 0.2708 0.2717 0.2856
0.3190 0.3617 0.3895 0.4164 0.4832 0.5499
0.6408 0.7261 0.8068 0.8541 0.8921 0.9691
0.9942 1.0303 1.0832 1.0730 1.0832 1.0813
1.0517 1.0684 1.0814 1.1082 1.1389 1.1685
1.2001 1.2418 1.3086 1.3336 1.3438 1.3466
1.3670 1.4022 1.4301 1.4839 1.5247 1.5432
1.5423 1.5729 1.6081 1.5924 1.5618 1.5692
1.5905 1.5534 1.5154 1.4885 1.4653 1.4765
1.4811 1.5117 1.5655 1.5822 1.6276 1.6981
1.7250 1.7575 1.7871 1.7918 1.7964 1.8020
1.7862 1.7705 1.7732 1.7491 1.7371 1.7250
1.6953 1.6703 1.6026 1.4960 1.3995 1.3476
1.3346 1.3197 1.2446 1.1306 1.0267 0.9247
0.8301 0.7513 0.7132 0.6900 0.6585 0.6585
0.6567 0.6316 0.6066 0.5917 0.5704 0.5176
0.4545 0.3924 0.3321 0.2922 0.2774 0.2709
0.2829 0.3098 0.3302 0.3395 0.3293 0.3098
0.2922 0.2700 0.2662 0.3080 0.3451 0.3673
0.3395 0.2292 0.0928 -0.0546 -0.2049 -0.3690
-0.5072 -0.6129 -0.7520 -0.8809 -0.9904 -1.0896
-1.1601 -1.2538 -1.3307 -1.4003 -1.4726 -1.5144
-1.6015 -1.6655 -1.7008 -1.7499 -1.8056 -1.8538
-1.8779 -1.9104 -1.8974 -1.8844 -1.8612 -1.8130
-1.8065 -1.7861 -1.7156 -1.6340 -1.5830 -1.5069
-1.4225 -1.3483 -1.2389 -1.1527 -1.1091 -1.0525
-0.9941 -0.9941 -1.0135 -1.0330 -1.0590 -1.0692
-1.0784 -1.0655 -1.0219 -1.0200 -1.0729 -1.1026
-1.0849 -1.0627 -1.0525 -1.0358 -1.0200 -1.0460
-1.0933 -1.1239 -1.1081 -1.0673 -1.0803 -1.1081
-1.1053 -1.0849 -1.0413 -1.0209 -0.9801 -0.9115
-0.8809 -0.8308 -0.7724 -0.7306 -0.6917 -0.6277
-0.5572 -0.5572 -0.5850 -0.5906 -0.5526 -0.5266
-0.5479 -0.5368 -0.5238 -0.5285 -0.5266 -0.4997
-0.4710 -0.4478 -0.3903 -0.3374 -0.3012 -0.2567
-0.1955 -0.1501 -0.1250 -0.1093 -0.1000 -0.0786
-0.0369 0.0150 0.0939 0.2163 0.3220 0.4435
0.5687 0.7115 0.8951 1.0380 1.1734 1.3069
1.4062 1.4850 1.5221 1.5341 1.5638 1.5824
1.5953 1.6185 1.6250 1.6408 1.6603 1.6733
1.6640 1.6223 1.5722 1.4896 1.3904 1.2522
1.1122 0.9851 0.8340 0.7357 0.6448 0.5372
0.4611 0.4278 0.3851 0.3155 0.2692 0.1968
0.0995 -0.0016 -0.0971 -0.1704 -0.2622 -0.3429
-0.4523 -0.5673 -0.6592 -0.7788 -0.8502 -0.9327
-1.0264 -1.0811 -1.1219 -1.1609 -1.2174 -1.2518
-1.2916 -1.3065 -1.3046 -1.3408 -1.3705 -1.3714
-1.3695 -1.3955 -1.4270 -1.4715 -1.5216 -1.5355
-1.5346 -1.5179 -1.4994 -1.4660 -1.4205 -1.3973
-1.3584 -1.3167 -1.2629 -1.2304 -1.2332 -1.1979
-1.1701 -1.1488 -1.1135 -1.0950 -1.0709 -1.0375
-1.0180 -1.0078 -1.0115 -0.9800 -0.9151 -0.8604
-0.8029 -0.7389 -0.7083 -0.7314 -0.7166 -0.6879
-0.6767 -0.6489 -0.6368 -0.6294 -0.5905 -0.5608
-0.5793 -0.5793 -0.5747 -0.5599 -0.5088 -0.4680
-0.4226 -0.3753 -0.2900 -0.1852 -0.1119 -0.0034
0.1459 0.3017 0.4241 0.5150 0.5883 0.6291
0.6272 0.6059 0.6300 0.6384 0.6050 0.5929
0.5762 0.5651 0.5540 0.5141 0.4557 0.3815
0.2952 0.2229 0.1821 0.1255 0.0792 0.0541
0.0374 0.0430 0.0504 0.0875 0.0829 0.0244
0.0142 0.0170 0.0207 0.0421 0.0616 0.0894
0.0986 0.0977 0.1367 0.1728 0.2016 0.2229
0.2480 0.3157 0.4260 0.5772 0.7441 0.8721
0.9778 1.0706 1.1216 1.1902 1.2589 1.2932
1.3423 1.3683 1.3535 1.3089 1.2654 1.2700
1.2765 1.2765 1.2756 1.2728 1.2385 1.2181
1.2431 1.2218 1.2413 1.2867 1.2756 1.2867
1.2811 1.2886 1.3229 1.3331 1.3655 1.3989
1.4444 1.4815 1.4796 1.5056 1.5288 1.5501
1.5807 1.6067 1.6410 1.6447 1.6577 1.6836
1.6790 1.6920 1.7124 1.7412 1.7884 1.8255
1.8830 1.9378 1.9897 2.0797 2.1659 2.2234
2.2577 2.2781 2.2689 2.2587 2.2438 2.2373
2.2763 2.3366 2.3913 2.4117 2.4553 2.4618
2.4544 2.4803 2.4692 2.4646 2.4590 2.4414
2.3959 2.3245 2.2744 2.2383 2.2309 2.2485
2.2466 2.2318 2.1956 2.1149 2.0621 2.0315
1.9601 1.9109 1.8822 1.8080 1.7375 1.7171
1.7189 1.7375 1.7811 1.8312 1.8386 1.7904
1.7486 1.7069 1.6420 1.5817 1.5214 1.4964
1.4806 1.4352 1.4250 1.4454 1.4426 1.4046
1.3944 1.4157 1.4222 1.4111 1.4074 1.3823
1.3239 1.2868 1.2145 1.0902 0.9474 0.8277
0.7396 0.6534 0.6237 0.5755 0.5059 0.4299
0.2973 0.1915 0.1044 0.0107 -0.0691 -0.1470
-0.2434 -0.3324 -0.4131 -0.5430 -0.6014 -0.6320
-0.6858 -0.6811 -0.7405 -0.8026 -0.8583 -0.9705
-1.0354 -1.0827 -1.1217 -1.1597 -1.1810 -1.2014
-1.2274 -1.2292 -1.2895 -1.3702 -1.4379 -1.5037
-1.5251 -1.5241 -1.5427 -1.6122 -1.7003 -1.7690
-1.8450 -1.9489 -2.0175 -2.0667 -2.1195 -2.1279
-2.1288 -2.1269 -2.1483 -2.2095 -2.2911 -2.3532
-2.3709 -2.3996 -2.4367 -2.4645 -2.4701 -2.4738
-2.4710 -2.4339 -2.4274 -2.4803 -2.5304 -2.5563
-2.5758 -2.5767 -2.5981 -2.6565 -2.7066 -2.7307
-2.7344 -2.7316 -2.7075 -2.6648 -2.6398 -2.6314
-2.5906 -2.5220 -2.4868 -2.4524 -2.3866 -2.3245
-2.2846 -2.2261 -2.1176 -2.0481 -2.0175 -1.9702
-1.9257 -1.8580 -1.7615 -1.6261 -1.5334 -1.5139
-1.4684 -1.4137 -1.3878 -1.3516 -1.2700 -1.2255
-1.1995 -1.1763 -1.2264 -1.2885 -1.3414 -1.3813
-1.4035 -1.3850 -1.3302 -1.3071 -1.2533 -1.1902
-1.1429 -1.0529 -0.9639 -0.8174 -0.6644 -0.5707
-0.4687 -0.4047 -0.3416 -0.2860 -0.2702 -0.2516
-0.1839 -0.0625 0.0822 0.2213 0.3289 0.4152
0.4421 0.4717 0.4838 0.4857 0.5691 0.6526
0.7203 0.7815 0.8789 0.9633 1.0013 1.0801
1.1339 1.1617 1.1831 1.2026 1.2257 1.1896
1.1460 1.1274 1.1497 1.1942 1.2332 1.3027
1.3519 1.3982 1.4502 1.4363 1.4233 1.4335
1.4187 1.3918 1.3760 1.3779 1.3843 1.4085
1.4567 1.5095 1.5606 1.6394 1.7034 1.7488
1.8314 1.9185 1.9862 2.0308 2.0484 2.0447
2.0475 2.0818 2.1281 2.1977 2.2821 2.3062
2.3099 2.3238 2.3201 2.3238 2.3044 2.2942
2.2821 2.2404 2.1782 2.1087 2.0697 2.0197
1.9659 1.9074 1.8453 1.8008 1.7785 1.7952
1.8128 1.8351 1.8481 1.8277 1.7618 1.6617
1.5949 1.5003 1.4039 1.3241 1.2091 1.1052
0.9875 0.8947 0.8400 0.7788 0.7194 0.6434
0.5451 0.4394 0.3494 0.2613 0.1843 0.0860
-0.0568 -0.1690 -0.2794 -0.4046 -0.5121 -0.6114
-0.7208 -0.8024 -0.8293 -0.8961 -0.9508 -0.9656
-1.0222 -1.0862 -1.1363 -1.1743 -1.2021 -1.2086
-1.1975 -1.2151 -1.2568 -1.2921 -1.3190 -1.3431
-1.3663 -1.4247 -1.4683 -1.4924 -1.5564 -1.6055
-1.6408 -1.6723 -1.7177 -1.7752 -1.8476 -1.9431
-2.0099 -2.0804 -2.1508 -2.2111 -2.2436 -2.2658
-2.3104 -2.3567 -2.3975 -2.4365 -2.4764 -2.5060
-2.5459 -2.5468 -2.5125 -2.5097 -2.5116 -2.4828
-2.4578 -2.4745 -2.4643 -2.4402 -2.4439 -2.4105
-2.3391 -2.2714 -2.1888 -2.0915 -1.9857 -1.8884
-1.8244 -1.7344 -1.6138 -1.5239 -1.4200 -1.3551
-1.2976 -1.1854 -1.1251 -1.0370 -0.9266 -0.8487
-0.7699 -0.7013 -0.6234 -0.5538 -0.4963 -0.4499
-0.3609 -0.2505 -0.1494 -0.0344 0.0639 0.1269
0.1473 0.1650 0.1724 0.1677 0.1826 0.1770
0.1863 0.2150 0.2327 0.2994 0.3718 0.4460
0.5118 0.5545 0.6083 0.6639 0.7502 0.8142
0.8763 0.9273 0.9375 0.9690 0.9959 1.0321
1.0822 1.1174 1.1610 1.2250 1.2612 1.2992
1.3409 1.3641 1.4151 1.4355 1.4671 1.4986
1.4643 1.4448 1.4504 1.4726 1.5144 1.5598
1.5951 1.6099 1.5793 1.5580 1.5626 1.5496
1.5663 1.5821 1.5608 1.5116 1.4439 1.3586
1.2139 1.0729 0.9765 0.8893 0.8225 0.7799
0.7307 0.6807 0.6287 0.5258 0.3885 0.2429
0.1085 -0.0121 -0.1586 -0.3024 -0.4090 -0.5101
-0.6131 -0.7058 -0.8208 -0.9386 -1.0489 -1.1741
-1.3049 -1.4051 -1.4811 -1.5720 -1.6184 -1.6722
-1.7723 -1.8233 -1.8539 -1.8790 -1.8882 -1.8975
-1.9188 -1.9958 -2.0570 -2.0830 -2.1015 -2.0997
-2.0969 -2.1043 -2.1108 -2.0969 -2.0737 -2.0672
-2.0310 -1.9726 -1.9578 -1.9003 -1.8530 -1.8075
-1.7000 -1.6230 -1.5330 -1.4468 -1.3531 -1.2381
-1.1212 -0.9960 -0.9079 -0.8495 -0.7883 -0.7095
-0.6112 -0.4915 -0.3802 -0.2662 -0.1651 -0.0649
0.0492 0.1345 0.2374 0.3534 0.4767 0.5685
0.6492 0.7262 0.7252 0.7308 0.7614 0.7521
0.7651 0.8198 0.8848 0.9692 1.0554 1.1546
1.1815 1.1305 1.1046 1.0805 1.0665 1.0545
1.0304 1.0016 0.9441 0.8635 0.8226 0.7893
0.7828 0.8199 0.8356 0.8802 0.9256 0.9330
0.9683 1.0258 1.0647 1.1306 1.2103 1.2808
1.3281 1.3457 1.3986 1.4394 1.4950 1.5266
1.5618 1.6258 1.6555 1.7000 1.7000 1.7009
1.6879 1.6703 1.6787 1.6870 1.7343 1.7241
1.7167 1.7009 1.6499 1.6119 1.5609 1.5553
1.5461 1.4793 1.4079 1.3374 1.2094 1.0583
0.9414 0.8524 0.7995 0.7661 0.7763 0.8181
0.8357 0.8310 0.7986 0.7531 0.7040 0.6558
0.6038 0.5510 0.5065 0.4378 0.3840 0.3432
0.3080 0.3015 0.2932 0.2690 0.2375 0.2004
0.1420 0.1216 0.1392 0.1652 0.1921 0.1884
0.1726 0.1420 0.1429 0.1364 0.1105 0.1272
0.1170 0.0910 0.0780 0.0372 0.0252 0.0381
0.0140 -0.0073 -0.0462 -0.0991 -0.1316 -0.1835
-0.2679 -0.3337 -0.3792 -0.4395 -0.5090 -0.5693
-0.5943 -0.6138 -0.6555 -0.7093 -0.7631 -0.7984
-0.8494 -0.9115 -0.9532 -1.0135 -1.0617 -1.0794
-1.1118 -1.1183 -1.1025 -1.0849 -1.0747 -1.0701
-1.0673 -1.0729 -1.0589 -1.0682 -1.0534 -1.0450
-1.0729 -1.0599 -1.0534 -1.0061 -0.9597 -0.9115
-0.8456 -0.7891 -0.6945 -0.6666 -0.6620 -0.6518
-0.6731 -0.6657 -0.6639 -0.6722 -0.6824 -0.6843
-0.6917 -0.7186 -0.7343 -0.7659 -0.7835 -0.8122
-0.8530 -0.8911 -0.9680 -1.0459 -1.1331 -1.2017
-1.2416 -1.2722 -1.2833 -1.3167 -1.3714 -1.3909
-1.4243 -1.5004 -1.5708 -1.6589 -1.7285 -1.7999
-1.8574 -1.8732 -1.8908 -1.8824 -1.8843 -1.8676
-1.8509 -1.8490 -1.8027 -1.7489 -1.6636 -1.5643
-1.4911 -1.4011 -1.2898 -1.1915 -1.1108 -1.0107
-0.8984 -0.8252 -0.7992 -0.7510 -0.6842 -0.6258
-0.5293 -0.4338 -0.3707 -0.2817 -0.2010 -0.1648
-0.1454 -0.1036 -0.0267 0.0206 0.0596 0.0995
0.1254 0.1774 0.2451 0.3165 0.3749 0.4194
0.4445 0.4537 0.4602 0.4797 0.4964 0.5215
0.5502 0.5298 0.5372 0.5428 0.5335 0.5604
0.5725 0.6003 0.6263 0.6773 0.7709 0.8414
0.9434 1.0186 1.0603 1.1067 1.1187 1.1336
1.1206 1.1345 1.1577 1.1401 1.1586 1.1716
1.1966 1.2458 1.2764 1.3191 1.3376 1.3636
1.4155 1.4396 1.4749 1.4934 1.4749 1.4563
1.4619 1.4823 1.4628 1.4628 1.4526 1.3914
1.3348 1.2829 1.2514 1.2236 1.1763 1.1132
1.0705 1.0659 1.0427 1.0103 0.9732 0.8925
0.7960 0.6922 0.6152 0.5632 0.4872 0.4418
0.4149 0.3629 0.3119 0.2628 0.2303 0.2025
0.1802 0.2071 0.2535 0.2999 0.3602 0.4316
0.5058 0.5744 0.6569 0.7348 0.7868 0.8359
0.8832 0.9361 0.9825 1.0409 1.1188 1.1837
1.2765 1.3636 1.4425 1.5065 1.5565 1.6168
1.6419 1.6576 1.6484 1.6289 1.6261 1.5973
1.5769 1.5473 1.4888 1.4573 1.4193 1.3488
1.2653 1.1874 1.1151 1.0372 0.9686 0.9111
0.8777 0.8536 0.8387 0.8211 0.7905 0.7933
0.8081 0.8267 0.8601 0.8925 0.9065 0.9027
0.8833 0.8610 0.8286 0.7757 0.7553 0.7284
0.6728 0.6097 0.5355 0.4761 0.4020 0.3649
0.3695 0.3556 0.3417 0.2897 0.2007 0.1163
0.0570 -0.0200 -0.1100 -0.1647 -0.2213 -0.2481
-0.2732 -0.2992 -0.3056 -0.3835 -0.4828 -0.5681
-0.6720 -0.7629 -0.8769 -0.9780 -1.0605 -1.1644
-1.2238 -1.2766 -1.3360 -1.3898 -1.4510 -1.5057
-1.5595 -1.6244 -1.6819 -1.7255 -1.7876 -1.8396
-1.8850 -1.9471 -1.9889 -1.9991 -2.0334 -2.0862
-2.1289 -2.2003 -2.2745 -2.3422 -2.3830 -2.4108
-2.4637 -2.4859 -2.4897 -2.4785 -2.4424 -2.3960
-2.3496 -2.3172 -2.2754 -2.2393 -2.2392 -2.2346
-2.2086 -2.2272 -2.2448 -2.2596 -2.2930 -2.2838
-2.2559 -2.2253 -2.2077 -2.2263 -2.2327 -2.2170
-2.2457 -2.2791 -2.2754 -2.2902 -2.3292 -2.3802
-2.4089 -2.4052 -2.4210 -2.4182 -2.4164 -2.4377
-2.4433 -2.4794 -2.4924 -2.5054 -2.5351 -2.5462
-2.5694 -2.5861 -2.6176 -2.6195 -2.5963 -2.5610
-2.5035 -2.4284 -2.3190 -2.2169 -2.1094 -1.9740
-1.8413 -1.7254 -1.5974 -1.4472 -1.3062 -1.1996
-1.1050 -1.0169 -0.9445 -0.8685 -0.7451 -0.5903
-0.4456 -0.2916 -0.1293 -0.0134 0.0691 0.1804
0.2593 0.3335 0.4587 0.5607 0.6321 0.6831
0.7183 0.7499 0.7842 0.8083 0.8584 0.9548
1.0086 1.0327 1.0874 1.1403 1.1802 1.2405
1.2961 1.3221 1.3304 1.3091 1.2952 1.2989
1.3119 1.3453 1.3406 1.3564 1.3731 1.3249
1.3323 1.3657 1.3648 1.4065 1.4325 1.4399
1.5030 1.5224 1.5298 1.5725 1.5725 1.5938
1.6523 1.6986 1.7404 1.7775 1.7840 1.7914
1.8201 1.8665 1.9305 1.9509 1.9593 1.9630
1.9676 2.0010 2.0038 2.0464 2.0696 2.0696
2.1299 2.1689 2.2152 2.2431 2.2384 2.2180
2.1893 2.1818 2.1707 2.1791 2.1735 2.1420
2.1346 2.1160 2.0696 2.0604 2.0557 2.0335
2.0363 2.0019 1.9500 1.9175 1.8712 1.8461
1.8220 1.7961 1.7757 1.7525 1.7710 1.7747
1.7757 1.8128 1.8257 1.8350 1.8415 1.8508
1.8721 1.8925 1.9333 1.9741 1.9983 1.9964
1.9918 1.9918 1.9760 2.0075 2.0474 2.0511
2.0595 2.0558 2.0576 2.0326 1.9918 1.9417
1.8842 1.8471 1.7840 1.7414 1.7043 1.6347
1.5401 1.4344 1.3287 1.2230 1.1441 1.0560
0.9818 0.8965 0.7871 0.6508 0.4810 0.3558
0.2325 0.1147 0.0118 -0.0828 -0.1403 -0.2025
-0.2757 -0.3592 -0.4352 -0.4862 -0.5066 -0.5131
-0.5103 -0.5076 -0.5150 -0.5076 -0.5178 -0.5187
-0.5298 -0.5706 -0.5753 -0.5678 -0.5678 -0.5391
-0.5020 -0.4909 -0.4510 -0.4185 -0.4102 -0.3972
-0.4167 -0.4538 -0.4964 -0.5168 -0.5298 -0.5233
-0.5233 -0.5419 -0.5381 -0.5548 -0.5799 -0.6188
-0.6578 -0.6958 -0.7644 -0.8071 -0.8488 -0.8924
-0.9110 -0.9388 -0.9425 -0.9508 -0.9555 -0.9434
-0.9249 -0.9035 -0.9221 -0.9499 -1.0000 -1.0315
-1.0556 -1.0723 -1.0361 -0.9990 -0.9267 -0.8367
-0.7829 -0.7394 -0.6846 -0.6698 -0.6865 -0.7004
-0.7088 -0.7190 -0.7560 -0.7894 -0.7885 -0.7718
-0.7857 -0.7644 -0.7264 -0.7486 -0.7588 -0.8024
-0.8794 -0.9341 -0.9814 -0.9907 -1.0259 -1.0741
-1.0862 -1.1298 -1.1734 -1.2151 -1.2448 -1.2754
-1.3245 -1.3551 -1.4126 -1.4516 -1.4544 -1.4785
-1.4887 -1.4979 -1.5063 -1.5081 -1.5091 -1.5035
-1.5165 -1.5109 -1.5054 -1.5035 -1.4738 -1.4460
-1.4052 -1.3616 -1.3162 -1.2791 -1.2438 -1.2188
-1.2086 -1.1511 -1.1010 -1.0398 -0.9684 -0.9044
-0.8293 -0.8283 -0.7977 -0.7412 -0.6920 -0.6224
-0.5779 -0.5084 -0.4713 -0.4583 -0.4425 -0.4305
-0.4091 -0.3906 -0.3739 -0.3553 -0.3322 -0.3210
-0.3238 -0.3423 -0.3451 -0.3674 -0.4082 -0.4471
-0.5204 -0.6029 -0.6651 -0.6966 -0.7272 -0.7421
-0.7291 -0.7393 -0.7699 -0.7847 -0.8088 -0.8357
-0.8923 -0.9869 -1.0713 -1.1807 -1.2549 -1.2957
-1.3523 -1.3986 -1.3949 -1.3764 -1.3662 -1.3217
-1.3180 -1.3078 -1.2957 -1.2901 -1.2632 -1.2465
-1.2104 -1.2057 -1.2067 -1.1835 -1.1538 -1.0805
-1.0045 -0.9739 -0.9665 -0.9924 -1.0406 -1.0388
-1.0258 -1.0481 -1.0546 -1.0397 -1.0545 -1.0768
-1.0490 -1.0369 -1.0425 -1.0499 -1.0508 -1.0508
-1.0861 -1.0861 -1.0972 -1.1120 -1.1157 -1.1426
-1.1538 -1.1788 -1.1779 -1.1844 -1.1974 -1.1742
-1.1528 -1.0898 -1.0044 -0.9136 -0.8477 -0.8023
-0.7596 -0.7160 -0.6298 -0.5222 -0.3747 -0.2319
-0.0807 0.0519 0.1576 0.2912 0.3802 0.4970
0.6185 0.7233 0.8383 0.9283 1.0470 1.1555
1.2622 1.3512 1.4393 1.5367 1.6016 1.7083
1.8093 1.8817 1.9800 2.0783 2.1553 2.2545
2.3408 2.3797 2.4242 2.4214 2.4177 2.4354
2.4066 2.4066 2.3816 2.3194 2.2656 2.2165
2.2035 2.1432 2.0663 1.9884 1.8854 1.7936
1.7240 1.6897 1.6267 1.5516 1.4839 1.4032
1.3049 1.2344 1.1824 1.1463 1.1806 1.1880
1.2056 1.2279 1.1945 1.1481 1.1120 1.0962
1.0777 1.0934 1.0916 1.0600 1.0554 1.0675
1.0823 1.0925 1.1305 1.1695 1.2047 1.2594
1.3105 1.3680 1.4125 1.4421 1.4542 1.4616
1.5228 1.5933 1.6276 1.6629 1.6518 1.6128
1.5785 1.5284 1.5089 1.4635 1.4310 1.4292
1.3939 1.3893 1.3735 1.3550 1.3374 1.3216
1.3364 1.3364 1.3698 1.4097 1.4236 1.4134
1.3958 1.3875 1.3439 1.3170 1.2771 1.2428
1.2465 1.2187 1.2085 1.1705 1.1204 1.1092
1.0963 1.1195 1.1658 1.2252 1.2428 1.2400
1.2456 1.2289 1.2558 1.2697 1.2632 1.2725
1.2651 1.2725 1.2892 1.3272 1.3893 1.4487
1.4997 1.5247 1.5414 1.5526 1.5581 1.5498
1.5099 1.4951 1.4997 1.4830 1.4635 1.4496
1.4394 1.4283 1.3959 1.3745 1.3736 1.3384
1.2957 1.2512 1.2215 1.1853 1.1529 1.1334
1.0592 0.9822 0.9071 0.8645 0.8042 0.7467
0.7662 0.7476 0.7393 0.7059 0.6280 0.5714
0.4991 0.4499 0.4286 0.4035 0.3655 0.3461
0.3071 0.2292 0.1763 0.0938 0.0066 -0.0833
-0.1724 -0.2067 -0.2503 -0.2725 -0.2966 -0.3541
-0.3847 -0.4376 -0.4701 -0.4701 -0.5136 -0.5229
-0.5517 -0.6008 -0.5897 -0.6110 -0.6286 -0.6342
-0.6370 -0.6472 -0.6852 -0.7065 -0.7687 -0.8262
-0.8790 -0.9393 -0.9662 -1.0144 -1.0385 -1.0858
-1.1424 -1.1888 -1.2602 -1.2926 -1.3557 -1.4262
-1.4911 -1.5681 -1.6543 -1.7610 -1.8723 -1.9873
-2.0568 -2.1180 -2.1477 -2.1727 -2.2080 -2.2098
-2.2256 -2.2312 -2.2293 -2.2126 -2.1876 -2.1662
-2.1505 -2.1607 -2.1542 -2.1431 -2.1356 -2.1162
-2.0763 -2.0086 -1.9427 -1.8741 -1.7841 -1.7081
-1.6775 -1.6320 -1.5699 -1.5198 -1.4558 -1.4002
-1.3482 -1.3316 -1.3473 -1.3492 -1.3659 -1.3566
-1.3353 -1.3761 -1.4261 -1.4530 -1.4679 -1.4948
-1.5282 -1.5588 -1.6098 -1.6450 -1.6821 -1.7220
-1.7322 -1.7442 -1.7516 -1.7498 -1.7554 -1.7452
-1.7173 -1.7173 -1.7387 -1.7498 -1.7489 -1.7275
-1.7183 -1.6951 -1.6199 -1.5652 -1.5226 -1.4539
-1.4215 -1.3899 -1.3593 -1.3232 -1.2527 -1.2184
-1.1516 -1.0755 -1.0422 -0.9939 -0.9448 -0.8845
-0.8131 -0.7407 -0.6962 -0.6693 -0.6276 -0.5812
-0.5358 -0.4950 -0.4597 -0.4328 -0.4106 -0.4087
-0.3837 -0.3299 -0.3215 -0.3058 -0.2965 -0.2928
-0.2909 -0.3150 -0.3123 -0.3280 -0.3290 -0.3252
-0.3317 -0.3076 -0.2835 -0.2863 -0.2872 -0.2677
-0.2668 -0.2288 -0.1870 -0.1583 -0.1008 -0.0869
-0.0739 -0.0591 -0.0396 0.0226 0.0847 0.1422
0.1830 0.2220 0.2711 0.3249 0.3852 0.4343
0.4622 0.4807 0.4918 0.4863 0.5030 0.5224
0.5605 0.5994 0.5966 0.6059 0.5892 0.5846
0.6004 0.6115 0.6495 0.6495 0.6653 0.6810
0.6718 0.7107 0.6912 0.6606 0.6569 0.6384
0.6384 0.6300 0.6616 0.7089 0.7441 0.7729
0.7886 0.8174 0.8508 0.8916 0.9129 0.9435
0.9751 0.9648 0.9695 0.9843 0.9982 1.0483
1.1021 1.1179 1.1095 1.1086 1.1309 1.1531
1.1837 1.2060 1.2097 1.2078 1.2060 1.2116
1.2078 1.1902 1.1485 1.1049 1.0520 0.9964
0.9695 0.9658 0.9677 0.9306 0.9009 0.8666
0.8026 0.7525 0.6894 0.6088 0.5262 0.4400
0.4010 0.3908 0.3695 0.3537 0.3435 0.3343
0.3250 0.3343 0.3584 0.3741 0.3584 0.3352
0.3018 0.2230 0.1562 0.1312 0.1172 0.0931
0.0848 0.0913 0.0996 0.1284 0.1293 0.1173
0.1126 0.1080 0.1219 0.1154 0.1024 0.0922
0.0542 0.0329 -0.0154 -0.0747 -0.0645 -0.1016
-0.1480 -0.1600 -0.1962 -0.2166 -0.2277 -0.2092
-0.2073 -0.1953 -0.1684 -0.1980 -0.2092 -0.2092
-0.2212 -0.2175 -0.2055 -0.2073 -0.1943 -0.1730
-0.1517 -0.1016 -0.0673 -0.0218 0.0246 0.0403
0.0607 0.0950 0.1507 0.1859 0.2249 0.2796
0.3139 0.3566 0.3816 0.4141 0.4892 0.5374
0.5986 0.6802 0.7229 0.7730 0.8017 0.8277
0.8778 0.8973 0.9205 0.9557 0.9928 1.0030
0.9974 1.0086 0.9872 0.9576 0.9557 0.9232
0.8963 0.9344 0.9372 0.9399 0.9835 0.9993
1.0336 1.0522 1.0410 1.0308 0.9947 0.9502
0.9019 0.8648 0.8250 0.7480 0.7053 0.6849
0.6181 0.5644 0.5477 0.5198 0.4753 0.4280
0.4086 0.3520 0.2815 0.2333 0.1674 0.1174
0.0385 0.0051 -0.0310 -0.0765 -0.0774 -0.1163
-0.1599 -0.2332 -0.3148 -0.4085 -0.4595 -0.5068
-0.5763 -0.5967 -0.6487 -0.6821 -0.7331 -0.8137
-0.8610 -0.9028 -0.9260 -0.9631 -1.0113 -1.0614
-1.0994 -1.1355 -1.2032 -1.2552 -1.2960 -1.3108
-1.3442 -1.3878 -1.3785 -1.4184 -1.4685 -1.4963
-1.5473 -1.6215 -1.6994 -1.7578 -1.8190 -1.8367
-1.8311 -1.8357 -1.8413 -1.8765 -1.9090 -1.8997
-1.8904 -1.9081 -1.8830 -1.8617 -1.8357 -1.7829
-1.7819 -1.7346 -1.7012 -1.6938 -1.6641 -1.6762
-1.6651 -1.6808 -1.6688 -1.6233 -1.6103 -1.5445
-1.4684 -1.4184 -1.4063 -1.3989 -1.3636 -1.3460
-1.3256 -1.3201 -1.3228 -1.2987 -1.2783 -1.2644
-1.2765 -1.2867 -1.2792 -1.2876 -1.2894 -1.2922
-1.3098 -1.3108 -1.3191 -1.3367 -1.3469 -1.3720
-1.3655 -1.3794 -1.4118 -1.4443 -1.4749 -1.4666
-1.4990 -1.5120 -1.5185 -1.5064 -1.4517 -1.4239
-1.3553 -1.3135 -1.2931 -1.2477 -1.2366 -1.2264
-1.2356 -1.2393 -1.2161 -1.2032 -1.1800 -1.1522
-1.1243 -1.1095 -1.1021 -1.0566 -1.0167 -0.9861
-0.9398 -0.9472 -0.9323 -0.9045 -0.9147 -0.8748
-0.8368 -0.7895 -0.7422 -0.7033 -0.6319 -0.5929
-0.5521 -0.4983 -0.4417 -0.3824 -0.3425 -0.3128
-0.2720 -0.1969 -0.1338 -0.0791 -0.0355 0.0071
0.0776 0.1370 0.2056 0.2603 0.2928 0.3039
0.2946 0.3123 0.3234 0.3429 0.3892 0.4245
0.4347 0.4551 0.4736 0.4811 0.4940 0.4848
0.4811 0.4903 0.5061 0.5330 0.5469 0.5664
0.5831 0.5979 0.5979 0.5887 0.5859 0.5599
0.5543 0.5664 0.5822 0.5942 0.5924 0.5952
0.5775 0.5646 0.5534 0.5590 0.5757 0.5831
0.6072 0.6174 0.6592 0.6935 0.6935 0.7129
0.7129 0.7269 0.7426 0.7547 0.7918 0.8344
0.8790 0.9123 0.9402 0.9708 0.9791 0.9856
0.9921 0.9940 1.0236 1.0533 1.0802 1.0941
1.1034 1.1062 1.1155 1.1637 1.2166 1.2833
1.3353 1.3853 1.4345 1.4781 1.5189 1.5402
1.5634 1.5903 1.6209 1.6450 1.6951 1.7452
1.7869 1.8287 1.8500 1.9001 1.9381 1.9557
1.9835 2.0132 2.0364 2.0883 2.1625 2.2182
2.2748 2.3313 2.3749 2.3721 2.3452 2.3230
2.2905 2.2785 2.2451 2.2256 2.2386 2.1987
2.1700 2.1394 2.0865 2.0633 2.0299 2.0105
1.9808 1.9418 1.9103 1.8426 1.7758 1.7350
1.6933 1.6330 1.5820 1.5588 1.5412 1.5106
1.4958 1.4893 1.4466 1.4355 1.4169 1.3873
1.3863 1.3752 1.3771 1.3585 1.3261 1.3094
1.2992 1.2890 1.2751 1.2704 1.2815 1.2918
1.2639 1.2305 1.1851 1.1489 1.1415 1.0998
1.0414 0.9950 0.9542 0.9050 0.8364 0.7668
0.7158 0.6333 0.5702 0.5229 0.4395 0.3838
0.3375 0.3041 0.2651 0.2160 0.1659 0.1103
0.0574 0.0240 0.0082 -0.0335 -0.0734 -0.1485
-0.2394 -0.3108 -0.3646 -0.4044 -0.4517 -0.4805
-0.5074 -0.5315 -0.5463 -0.5612 -0.5834 -0.5983
-0.6289 -0.6799 -0.7114 -0.7513 -0.8060 -0.8579
-0.9099 -0.9822 -1.0416 -1.1056 -1.1630 -1.1788
-1.2159 -1.2530 -1.2873 -1.3402 -1.3606 -1.3652
-1.3717 -1.3828 -1.3949 -1.4116 -1.4422 -1.4468
-1.4709 -1.5090 -1.5359 -1.5692 -1.5989 -1.6342
-1.6610 -1.6805 -1.6842 -1.6833 -1.6657 -1.6406
-1.6267 -1.6082 -1.6341 -1.6527 -1.6416 -1.6314
-1.6258 -1.6156 -1.6026 -1.6045 -1.5822 -1.5637
-1.5637 -1.5238 -1.4672 -1.4375 -1.3986 -1.3541
-1.3160 -1.2659 -1.2400 -1.1945 -1.1593 -1.1565
-1.1092 -1.0628 -1.0192 -0.9719 -0.9107 -0.8514
-0.7985 -0.7123 -0.6603 -0.6232 -0.5880 -0.5769
-0.5305 -0.5119 -0.4962 -0.4442 -0.4164 -0.3719
-0.3524 -0.3441 -0.3163 -0.2921 -0.2782 -0.2606
-0.2124 -0.2050 -0.1938 -0.1799 -0.2161 -0.2615
-0.2968 -0.3357 -0.3812 -0.3997 -0.4062 -0.3941
-0.3710 -0.3478 -0.3237 -0.3135 -0.2940 -0.2801
-0.2745 -0.2309 -0.2124 -0.2124 -0.2096 -0.2188
-0.2402 -0.2680 -0.2726 -0.2726 -0.2596 -0.2439
-0.2179 -0.1641 -0.1242 -0.0723 0.0019 0.0742
0.1401 0.1920 0.2773 0.3654 0.4406 0.5250
0.6001 0.6668 0.7030 0.7475 0.7624 0.7494
0.7707 0.7967 0.8412 0.8811 0.9256 0.9720
0.9979 1.0313 1.0666 1.1241 1.1621 1.1927
1.2409 1.2586 1.2780 1.2882 1.3161 1.3420
1.3457 1.3680 1.3810 1.4227 1.4478 1.4663
1.4969 1.5043 1.5386 1.5284 1.5136 1.5034
1.4765 1.4552 1.4274 1.4515 1.4441 1.4320
1.4496 1.4255 1.4339 1.4404 1.4524 1.4775
1.4682 1.4673 1.4413 1.4209 1.4265 1.4172
1.3782 1.3495 1.3309 1.3087 1.3226 1.3040
1.2920 1.2948 1.2864 1.2920 1.2725 1.2614
1.2391 1.2076 1.1891 1.1566 1.1316 1.1158
1.0945 1.0555 0.9943 0.9674 0.9479 0.8821
0.8339 0.7560 0.6892 0.6734 0.6271 0.5992
0.5770 0.5594 0.5492 0.5297 0.5343 0.5130
0.5037 0.5139 0.5102 0.5241 0.5056 0.4880
0.4601 0.4073 0.3674 0.3201 0.2867 0.2487
0.2042 0.1680 0.1189 0.0632 0.0168 -0.0490
-0.1019 -0.1371 -0.2057 -0.2549 -0.3272 -0.4033
-0.4543 -0.5414 -0.6231 -0.7084 -0.7854 -0.8475
-0.9412 -1.0376 -1.0830 -1.1359 -1.2082 -1.2463
-1.2926 -1.3242 -1.3427 -1.3789 -1.4160 -1.4225
-1.4160 -1.4447 -1.4466 -1.4280 -1.4280 -1.4364
-1.4317 -1.4104 -1.4039 -1.3761 -1.3566 -1.3677
-1.3492 -1.3306 -1.3260 -1.3204 -1.3195 -1.3306
-1.3520 -1.3724 -1.3844 -1.3826 -1.3798 -1.3687
-1.3863 -1.4067 -1.3955 -1.3946 -1.3816 -1.3844
-1.3742 -1.3603 -1.3594 -1.3455 -1.3640 -1.3297
-1.3223 -1.3315 -1.2870 -1.2880 -1.2768 -1.2573
-1.2499 -1.2369 -1.2351 -1.2314 -1.1906 -1.1553
-1.1201 -1.0867 -1.0858 -1.0663 -1.0709 -1.0681
-1.0654 -1.0570 -1.0190 -1.0079 -0.9763 -0.9569
-0.9374 -0.9198 -0.9225 -0.9225 -0.9151 -0.8966
-0.8762 -0.8474 -0.8122 -0.7676 -0.7482 -0.7231
-0.6935 -0.6777 -0.6313 -0.5914 -0.5645 -0.5451
-0.5247 -0.5089 -0.4811 -0.4430 -0.4338 -0.4115
-0.3883 -0.3522 -0.3317 -0.3234 -0.2863 -0.2974
-0.2770 -0.2538 -0.2752 -0.2705 -0.2640 -0.2473
-0.2566 -0.2279 -0.1796 -0.1574 -0.1249 -0.1184
-0.0962 -0.0628 -0.0229 0.0123 0.0392 0.1023
0.1505 0.1774 0.2201 0.2609 0.2822 0.3277
0.3805 0.4028 0.4353 0.4482 0.4788 0.5011
0.5141 0.5558 0.5753 0.6217 0.6504 0.6801
0.7126 0.7135 0.7561 0.7497 0.7302 0.7348
0.7200 0.7274 0.7367 0.7580 0.7617 0.7534
0.7654 0.7803 0.7960 0.8202 0.8498 0.8526
0.8563 0.8591 0.8656 0.9018 0.9212 0.9361
0.9648 0.9936 1.0149 1.0372 1.0752 1.1188
1.1420 1.1661 1.1865 1.1800 1.1633 1.1587
1.1902 1.1911 1.1930 1.2245 1.2394 1.2588
1.2459 1.2236 1.2060 1.1884 1.1745 1.1680
1.1578 1.1068 1.0752 1.0326 0.9732 0.9139
0.8424 0.8091 0.7692 0.7404 0.7367 0.7061
0.6885 0.6542 0.6319 0.6162 0.5596 0.5475
0.5262 0.4817 0.4659 0.4353 0.3936 0.3667
0.3454 0.3315 0.3287 0.3074 0.2916 0.2870
0.2888 0.3036 0.2897 0.2962 0.3064 0.2972
0.2888 0.2768 0.2860 0.2972 0.3120 0.3111
0.3129 0.3213 0.3370 0.3677 0.3482 0.3667
0.3918 0.3964 0.4020 0.3946 0.4224 0.4511
0.4882 0.5058 0.5327 0.5624 0.5541 0.5819
0.6292 0.6477 0.6515 0.6719 0.6932 0.7210
0.7470 0.7618 0.7757 0.7776 0.7804 0.7692
0.7757 0.7961 0.7999 0.8138 0.8249 0.8351
0.8388 0.8314 0.8351 0.8258 0.7962 0.7934
0.8036 0.7924 0.7767 0.7860 0.7952 0.7860
0.7934 0.7934 0.7989 0.8092 0.8064 0.8119
0.8036 0.7888 0.7776 0.7906 0.8092 0.8008
0.8064 0.8175 0.8119 0.7971 0.7748 0.7721
0.7582 0.7313 0.7081 0.6793 0.6534 0.6005
0.5514 0.4994 0.4354 0.3594 0.2379 0.1350
0.0506 -0.0375 -0.1377 -0.2314 -0.3195 -0.4150
-0.5012 -0.5893 -0.6737 -0.7609 -0.8490 -0.9622
-1.0679 -1.1606 -1.2534 -1.3415 -1.4277 -1.4954
-1.5742 -1.6271 -1.7022 -1.7829 -1.8172 -1.8599
-1.8886 -1.9406 -1.9842 -2.0120 -2.0333 -2.0305
-2.0621 -2.0843 -2.0945 -2.1066 -2.0936 -2.0954
-2.1056 -2.1140 -2.1325 -2.1223 -2.1103 -2.1019
-2.0667 -2.0546 -2.0769 -2.0667 -2.0695 -2.0936
-2.0759 -2.0861 -2.0954 -2.0945 -2.1019 -2.1195
-2.1594 -2.1548 -2.1529 -2.1446 -2.1214 -2.1038
-2.0741 -2.0323 -1.9739 -1.9340 -1.8932 -1.8858
-1.8895 -1.8979 -1.8923 -1.8673 -1.8598 -1.8135
-1.8088 -1.8311 -1.8292 -1.8524 -1.8654 -1.8441
-1.8478 -1.8524 -1.8153 -1.8088 -1.8162 -1.8339
-1.8496 -1.8645 -1.8821 -1.8774 -1.8895 -1.8951
-1.8858 -1.8821 -1.8682 -1.8737 -1.8774 -1.8849
-1.9062 -1.9034 -1.9099 -1.8793 -1.8320 -1.8162
-1.7949 -1.7930 -1.8032 -1.8088 -1.8227 -1.8153
-1.8051 -1.8357 -1.8450 -1.8208 -1.8218 -1.8208
-1.8032 -1.7735 -1.7541 -1.7327 -1.6864 -1.6706
-1.6502 -1.6187 -1.5853 -1.5482 -1.5574 -1.5584
-1.5519 -1.5120 -1.4564 -1.4424 -1.3794 -1.3089
-1.2412 -1.1605 -1.0919 -1.0028 -0.9286 -0.8359
-0.7608 -0.6894 -0.5892 -0.5336 -0.4492 -0.3611
-0.2961 -0.1997 -0.1116 -0.0161 0.0739 0.1583
0.2538 0.3373 0.4300 0.4996 0.5747 0.6535
0.7212 0.7991 0.8464 0.9308 1.0050 1.0449
1.0968 1.1312 1.1599 1.1868 1.2081 1.2044
1.2146 1.2230 1.2239 1.2285 1.2341 1.2656
1.2768 1.3074 1.3473 1.3825 1.4159 1.4289
1.4437 1.4113 1.4038 1.4205 1.4409 1.4752
1.4836 1.5021 1.4910 1.4919 1.5253 1.5365
1.5661 1.6255 1.6811 1.7015 1.7433 1.7943
1.8230 1.8648 1.8778 1.9195 1.9761 2.0252
2.0976 2.1486 2.1755 2.1792 2.2163 2.2487
2.2738 2.3211 2.3211 2.3266 2.3563 2.3712
2.3776 2.4157 2.4593 2.4695 2.4880 2.5103
2.5214 2.5075 2.4982 2.4927 2.4611 2.4583
2.4491 2.4250 2.4175 2.4120 2.4120 2.3944
2.3786 2.3554 2.3174 2.2933 2.2645 2.2247
2.1838 2.1467 2.1050 2.0744 2.0290 1.9937
1.9733 1.9242 1.9038 1.8658 1.8351 1.8166
1.7795 1.7526 1.7053 1.6756 1.6413 1.6024
1.5644 1.5254 1.4911 1.4336 1.3752 1.3047
1.2667 1.2231 1.1498 1.1303 1.0747 1.0228
1.0033 0.9523 0.9105 0.8697 0.8419 0.7881
0.7306 0.6898 0.6314 0.5702 0.5442 0.4886
0.3884 0.3458 0.2753 0.1825 0.1176 0.0184
-0.0716 -0.1541 -0.2589 -0.3554 -0.4351 -0.5047
-0.5826 -0.6521 -0.7068 -0.7838 -0.8812 -0.9851
-1.0713 -1.1613 -1.2345 -1.2800 -1.3347 -1.3903
-1.4265 -1.4682 -1.5248 -1.5563 -1.6036 -1.6398
-1.6685 -1.7242 -1.7604 -1.7863 -1.8086 -1.8420
-1.8587 -1.8587 -1.8494 -1.8531 -1.8531 -1.8262
-1.8308 -1.8076 -1.7733 -1.7668 -1.7687 -1.7696
-1.7854 -1.8132 -1.8271 -1.8549 -1.8679 -1.8642
-1.8698 -1.8661 -1.8419 -1.8336 -1.8466 -1.8494
-1.8438 -1.8345 -1.8197 -1.8021 -1.7983 -1.8002
-1.7844 -1.7779 -1.7789 -1.7612 -1.7705 -1.7798
-1.7752 -1.7844 -1.7724 -1.7538 -1.7232 -1.6926
-1.6768 -1.6731 -1.6537 -1.6184 -1.6045 -1.5674
-1.5266 -1.4969 -1.4496 -1.4107 -1.3680 -1.3077
-1.2586 -1.1992 -1.1445 -1.0990 -1.0063 -0.9386
-0.8848 -0.7884 -0.7336 -0.6706 -0.5686 -0.5120
-0.4369 -0.3293 -0.2681 -0.2217 -0.1438 -0.0946
-0.0678 -0.0056 0.0408 0.0899 0.1483 0.1789
0.1984 0.2198 0.2457 0.2606 0.2624 0.2708
0.2865 0.3004 0.3208 0.3199 0.3208 0.3422
0.3394 0.3413 0.3338 0.3264 0.3255 0.3320
0.3691 0.3737 0.3886 0.4247 0.4303 0.4553
0.4581 0.4655 0.4952 0.4869 0.4813 0.4869
0.4915 0.4952 0.5221 0.5481 0.5648 0.5926
0.5935 0.6186 0.6445 0.6603 0.6983 0.7178
0.7456 0.7549 0.7317 0.7104 0.7076 0.7141
0.7039 0.7141 0.7345 0.7262 0.7308 0.7252
0.6946 0.7188 0.7317 0.7327 0.7698 0.8022
0.8347 0.8458 0.8597 0.8746 0.8634 0.8690
0.9033 0.9599 1.0248 1.0842 1.1584 1.2186
1.2595 1.3132 1.3856 1.4607 1.4839 1.5275
1.5980 1.6351 1.6916 1.7445 1.8178 1.8947
1.9216 1.9328 1.9597 1.9940 2.0060 2.0209
2.0496 2.0969 2.1312 2.1720 2.2258 2.2592
2.2963 2.3325 2.3501 2.3408 2.3575 2.3501
2.3436 2.3455 2.2871 2.2592 2.2314 2.2054
2.1786 2.1470 2.1275 2.0802 2.0441 1.9875
1.9430 1.9059 1.8799 1.8762 1.8391 1.8057
1.7724 1.7399 1.7186 1.6880 1.6333 1.5720
1.5118 1.4515 1.4079 1.3866 1.3634 1.3198
1.2753 1.2057 1.1343 1.0796 1.0110 0.9340
0.8579 0.8236 0.7773 0.7114 0.6892 0.6651
0.6447 0.6215 0.5797 0.5408 0.4944 0.4712
0.4276 0.3674 0.3386 0.2895 0.2366 0.1884
0.1383 0.1318 0.1133 0.0743 0.0502 -0.0110
-0.0565 -0.0861 -0.1362 -0.1510 -0.1548 -0.1650
-0.1770 -0.1993 -0.2364 -0.2725 -0.2985 -0.3300
-0.3736 -0.4116 -0.4293 -0.4626 -0.4812 -0.4970
-0.5313 -0.5461 -0.5647 -0.5711 -0.5953 -0.6361
-0.6639 -0.7010 -0.7325 -0.7779 -0.7881 -0.7798
-0.8271 -0.8698 -0.9096 -0.9486 -0.9588 -0.9699
-1.0033 -1.0218 -1.0172 -1.0209 -1.0534 -1.0979
-1.0997 -1.1396 -1.1869 -1.2129 -1.2667 -1.2861
-1.3223 -1.3631 -1.3928 -1.4327 -1.4707 -1.4948
-1.5217 -1.5607 -1.6070 -1.6757 -1.7127 -1.7498
-1.7879 -1.8277 -1.8890 -1.9298 -1.9529 -1.9613
-2.0039 -2.0383 -2.0661 -2.0930 -2.1199 -2.1560
-2.1653 -2.1811 -2.1848 -2.2033 -2.2135 -2.2024
-2.1894 -2.1690 -2.1690 -2.1644 -2.1468 -2.1467
-2.1310 -2.0948 -2.0994 -2.1171 -2.0883 -2.0466
-2.0419 -2.0132 -1.9622 -1.9195 -1.8732 -1.8305
-1.7850 -1.7563 -1.7127 -1.6858 -1.6728 -1.6348
-1.5949 -1.5754 -1.5606 -1.5383 -1.5040 -1.4577
-1.4586 -1.4558 -1.4400 -1.4345 -1.4085 -1.3705
-1.3352 -1.3167 -1.2972 -1.2861 -1.2564 -1.2388
-1.2295 -1.1961 -1.1803 -1.1535 -1.1293 -1.1071
-1.0811 -1.1024 -1.1154 -1.0857 -1.0932 -1.0830
-1.0468 -1.0190 -0.9921 -0.9633 -0.9151 -0.9040
-0.8696 -0.8316 -0.8372 -0.8149 -0.7713 -0.7296
-0.7092 -0.6721 -0.6174 -0.5979 -0.5552 -0.5107
-0.5070 -0.4616 -0.4208 -0.4041 -0.3707 -0.3178
-0.2464 -0.1880 -0.1231 -0.0869 -0.0637 -0.0044
0.0726 0.1255 0.1375 0.1644 0.2080 0.2340
0.2609 0.3082 0.3388 0.3870 0.4455 0.4826
0.5336 0.5809 0.6346 0.6541 0.6532 0.6894
0.7126 0.7237 0.7719 0.8303 0.8628 0.9092
0.9611 1.0186 1.0650 1.0891 1.1327 1.1763
1.2384 1.2950 1.3404 1.3747 1.4295 1.4907
1.4935 1.5389 1.5853 1.6029 1.6289 1.6400
1.6724 1.7123 1.7494 1.7717 1.7856 1.7949
1.8143 1.8598 1.8978 1.9284 1.9349 1.9201
1.9173 1.9433 1.9590 1.9349 1.9349 1.9488
1.9618 1.9822 1.9757 1.9711 1.9841 1.9702
1.9377 1.9145 1.9015 1.8904 1.8682 1.8413
1.8144 1.8153 1.8172 1.7903 1.7680 1.7189
1.6966 1.6947 1.6641 1.6298 1.5844 1.5695
1.5491 1.5501 1.5575 1.5306 1.5148 1.4610
1.4277 1.4230 1.3850 1.3340 1.3164 1.3006
1.2700 1.2728 1.2431 1.2366 1.2440 1.1791
1.1235 1.0706 1.0094 0.9445 0.9028 0.8916
0.8564 0.8156 0.7906 0.7544 0.7127 0.6876
0.6487 0.6004 0.5689 0.5114 0.4623 0.4317
0.3816 0.3649 0.3621 0.3343 0.2972 0.2323
0.1738 0.1414 0.1163 0.0932 0.0579 0.0329
0.0060 -0.0432 -0.0951 -0.1164 -0.1062 -0.1053
-0.1303 -0.1813 -0.1999 -0.2027 -0.2361 -0.2657
-0.3242 -0.3891 -0.4577 -0.5282 -0.5477 -0.5838
-0.6321 -0.6710 -0.7285 -0.7573 -0.7860 -0.8444
-0.8973 -0.9613 -1.0178 -1.0522 -1.0818 -1.1087
-1.1319 -1.1644 -1.2117 -1.2534 -1.3146 -1.3638
-1.3999 -1.4602 -1.4871 -1.4611 -1.4324 -1.4537
-1.4584 -1.4352 -1.4435 -1.4825 -1.5094 -1.5038
-1.5019 -1.5019 -1.5103 -1.4954 -1.4602 -1.4333
-1.3934 -1.3378 -1.3044 -1.3044 -1.2831 -1.2543
-1.2265 -1.2126 -1.1922 -1.1541 -1.1133 -1.0549
-1.0299 -0.9872 -0.9362 -0.9056 -0.8703 -0.8416
-0.7859 -0.7507 -0.7303 -0.6914 -0.6737 -0.6431
-0.5921 -0.5680 -0.5495 -0.5012 -0.4196 -0.3584
-0.3287 -0.2833 -0.2397 -0.1980 -0.1562 -0.1293
-0.1043 -0.0718 -0.0625 -0.0514 -0.0329 -0.0125
0.0321 0.0348 0.0636 0.1137 0.1072 0.1331
0.1637 0.1647 0.1916 0.2268 0.2509 0.2630
0.2917 0.3261 0.3427 0.3446 0.3641 0.3641
0.3298 0.3650 0.4114 0.4587 0.5078 0.5032
0.5106 0.5394 0.5607 0.5598 0.5570 0.5635
0.5542 0.5533 0.5570 0.5700 0.5960 0.6043
0.6219 0.6433 0.6479 0.6451 0.6470 0.6479
0.6386 0.6525 0.6618 0.6646 0.6702 0.6340
0.6303 0.6442 0.6266 0.6377 0.6331 0.6173
0.6145 0.6238 0.6451 0.6451 0.6637 0.6980
0.7240 0.7444 0.7824 0.8093 0.7731 0.7629
0.7490 0.7101 0.6971 0.6349 0.5904 0.5737
0.5598 0.5719 0.5505 0.5561 0.5570 0.5237
0.5079 0.4680 0.4615 0.4560 0.4216 0.4346
0.4077 0.3632 0.3317 0.2760 0.2538 0.2176
0.1889 0.1722 0.1360 0.1277 0.0832 0.0294
0.0210 -0.0105 -0.0374 -0.0606 -0.0699 -0.0754
-0.1088 -0.1450 -0.1969 -0.2284 -0.2609 -0.2952
-0.3481 -0.3750 -0.3815 -0.4343 -0.4455 -0.4649
-0.5048 -0.5336 -0.5484 -0.5400 -0.5660 -0.6152
-0.6523 -0.6958 -0.7487 -0.8090 -0.8804 -0.9416
-0.9778 -0.9722 -0.9843 -1.0000 -1.0084 -1.0482
-1.0510 -1.0835 -1.1252 -1.1521 -1.1864 -1.1540
-1.1382 -1.1521 -1.1642 -1.1679 -1.1744 -1.1716
-1.1391 -1.1336 -1.1113 -1.0890 -1.0807 -1.0547
-1.0538 -1.0454 -1.0519 -1.0742 -1.0696 -1.0853
-1.0705 -1.0306 -1.0315 -1.0389 -1.0371 -1.0371
-1.0213 -1.0046 -1.0120 -1.0426 -1.0779 -1.0649
-1.0677 -1.0881 -1.0807 -1.1094 -1.1326 -1.1447
-1.1567 -1.1419 -1.1187 -1.1140 -1.1233 -1.1215
-1.1307 -1.1465 -1.1428 -1.1270 -1.1131 -1.0973
-1.0667 -1.0482 -1.0575 -1.0473 -1.0241 -1.0120
-1.0074 -0.9814 -0.9387 -0.9230 -0.8729 -0.8154
-0.7755 -0.7273 -0.6679 -0.6169 -0.5965 -0.5520
-0.5084 -0.4407 -0.3582 -0.2877 -0.1996 -0.1625
-0.1161 -0.0354 0.0054 0.0313 0.0629 0.1055
0.1603 0.2020 0.2150 0.2178 0.2261 0.2382
0.2539 0.2855 0.3365 0.3606 0.3587 0.3773
0.3439 0.2836 0.2660 0.2419 0.2252 0.2372
0.2549 0.2753 0.2855 0.2910 0.3244 0.3421
0.3309 0.3625 0.3791 0.3578 0.3708 0.3829
0.3782 0.3764 0.3727 0.3921 0.4181 0.4450
0.4700 0.4738 0.4905 0.4756 0.4385 0.4385
0.4181 0.3986 0.4051 0.4135 0.4265 0.4274
0.4311 0.4766 0.4997 0.5007 0.5174 0.4923
0.4682 0.4330 0.4033 0.3681 0.3078 0.2892
0.2846 0.2976 0.2837 0.2976 0.3421 0.3300
0.3458 0.3634 0.3328 0.2929 0.2661 0.2521
0.2540 0.2661 0.2596 0.3022 0.3375 0.3365
0.3783 0.3940 0.4005 0.4033 0.3950 0.4228
0.4395 0.4256 0.4172 0.4172 0.4497 0.5091
0.5656 0.6241 0.6639 0.6955 0.7251 0.7474
0.7400 0.7530 0.8160 0.8550 0.8800 0.9125
0.9338 0.9663 1.0089 1.0405 1.0813 1.1091
1.1323 1.1462 1.1666 1.2223 1.2593 1.2686
1.2417 1.2427 1.2297 1.2046 1.2083 1.1926
1.2250 1.2380 1.2288 1.2176 1.1972 1.2223
1.2213 1.2251 1.2269 1.2074 1.1870 1.1509
1.1193 1.0906 1.0665 1.0609 1.0377 1.0090
1.0331 1.0303 1.0266 1.0108 0.9821 0.9635
0.9366 0.9311 0.8847 0.8680 0.8523 0.8272
0.8319 0.8012 0.8003 0.7836 0.7614 0.7771
0.7790 0.7753 0.7438 0.7354 0.7317 0.7289
0.7308 0.7187 0.7299 0.7039 0.6733 0.6408
0.6019 0.5722 0.5332 0.5221 0.5119 0.5277
0.5342 0.5036 0.4720 0.4081 0.3357 0.2662
0.2161 0.1549 0.1094 0.1011 0.0473 0.0019
-0.0287 -0.0621 -0.1039 -0.1549 -0.2133 -0.2662
-0.2986 -0.3459 -0.3580 -0.3793 -0.4071 -0.4053
-0.4173 -0.4118 -0.4062 -0.4201 -0.4312 -0.4266
-0.4386 -0.4665 -0.5101 -0.5898 -0.6482 -0.6983
-0.7530 -0.7734 -0.7966 -0.8105 -0.8003 -0.8087
-0.8291 -0.8652 -0.8986 -0.9218 -0.9570 -0.9979
-1.0294 -1.0526 -1.0897 -1.1397 -1.1787 -1.2102
-1.2418 -1.2742 -1.2993 -1.3206 -1.3456 -1.3679
-1.4142 -1.4782 -1.5404 -1.6099 -1.6600 -1.6813
-1.7249 -1.7759 -1.8269 -1.8789 -1.9095 -1.9438
-1.9735 -1.9883 -1.9800 -1.9651 -1.9623 