Archivo de aceleración parte de la Red Nacional de Acelerógrafos (RENAC) Ecuador
          
Evento: 201604162358
Fecha del evento UTM (aammdd):                  2016    4   16
Hora del registro UTM (hhmmss): 23   58 14.00
Estación:                                      AES2
Componente:                                        N
Frecuencia de muestreo (Hz):            1.000000e+02
Unidades: cm/s^2
_____________________________________________
0.0000 0.0000 0.0001 0.0001 0.0003 0.0004
0.0006 0.0008 0.0010 0.0013 0.0016 0.0020
0.0024 0.0028 0.0032 0.0038 0.0042 0.0049
0.0054 0.0059 0.0066 0.0073 0.0080 0.0089
0.0095 0.0100 0.0110 0.0118 0.0127 0.0136
0.0149 0.0157 0.0163 0.0178 0.0187 0.0201
0.0212 0.0222 0.0236 0.0250 0.0264 0.0279
0.0291 0.0298 0.0310 0.0331 0.0347 0.0354
0.0367 0.0382 0.0402 0.0419 0.0438 0.0463
0.0462 0.0476 0.0505 0.0521 0.0542 0.0547
0.0579 0.0599 0.0607 0.0645 0.0654 0.0670
0.0681 0.0692 0.0699 0.0722 0.0768 0.0782
0.0815 0.0826 0.0844 0.0909 0.0910 0.0931
0.0962 0.0956 0.0986 0.1018 0.1036 0.1063
0.1092 0.1118 0.1121 0.1147 0.1200 0.1195
0.1227 0.1258 0.1273 0.1358 0.1370 0.1384
0.1389 0.1366 0.1431 0.1485 0.1527 0.1545
0.1568 0.1588 0.1611 0.1656 0.1640 0.1697
0.1742 0.1745 0.1781 0.1818 0.1881 0.1916
0.1944 0.1983 0.1978 0.2033 0.2081 0.2058
0.2123 0.2140 0.2125 0.2171 0.2202 0.2243
0.2280 0.2350 0.2389 0.2398 0.2413 0.2490
0.2533 0.2464 0.2538 0.2585 0.2570 0.2657
0.2675 0.2749 0.2839 0.2823 0.2801 0.2799
0.2879 0.2940 0.2949 0.2953 0.2974 0.3087
0.3086 0.3089 0.3218 0.3168 0.3144 0.3257
0.3345 0.3379 0.3362 0.3405 0.3377 0.3401
0.3472 0.3520 0.3529 0.3552 0.3695 0.3638
0.3733 0.3746 0.3686 0.3812 0.3793 0.3836
0.3751 0.3843 0.3995 0.3869 0.3989 0.4072
0.3896 0.3961 0.4136 0.4076 0.4143 0.4239
0.4182 0.4309 0.4413 0.4397 0.4411 0.4418
0.4450 0.4438 0.4487 0.4569 0.4594 0.4612
0.4720 0.4784 0.4717 0.4741 0.4666 0.4682
0.4805 0.4761 0.4858 0.4921 0.4882 0.4932
0.4912 0.4906 0.5046 0.4969 0.4947 0.5102
0.5051 0.5223 0.5193 0.5082 0.5408 0.5407
0.5286 0.5328 0.5332 0.5418 0.5391 0.5394
0.5450 0.5476 0.5654 0.5572 0.5581 0.5746
0.5544 0.5631 0.5663 0.5568 0.5726 0.5661
0.5836 0.5755 0.5526 0.5937 0.5919 0.5704
0.5741 0.5861 0.5964 0.5844 0.5964 0.5992
0.5820 0.5898 0.5933 0.5893 0.6106 0.6099
0.5998 0.6110 0.6033 0.6188 0.6292 0.5946
0.6048 0.6203 0.5949 0.5973 0.6233 0.6362
0.6280 0.6260 0.6380 0.6385 0.6301 0.6350
0.6372 0.6394 0.6487 0.6499 0.6457 0.6514
0.6606 0.6491 0.6547 0.6603 0.6513 0.6486
0.6559 0.6705 0.6614 0.6622 0.6603 0.6428
0.6481 0.6561 0.6486 0.6510 0.6627 0.6532
0.6537 0.6579 0.6602 0.6607 0.6547 0.6745
0.6739 0.6557 0.6551 0.6683 0.6713 0.6687
0.6782 0.6653 0.6793 0.6794 0.6683 0.6767
0.6618 0.6804 0.6776 0.6554 0.6637 0.6879
0.6981 0.6861 0.6833 0.6703 0.6759 0.6806
0.6815 0.6787 0.6862 0.6945 0.6695 0.6871
0.6862 0.6714 0.6881 0.6779 0.6742 0.6659
0.6650 0.6622 0.6650 0.6854 0.6715 0.6715
0.6688 0.6651 0.6725 0.6632 0.6725 0.6651
0.6475 0.6642 0.6819 0.6578 0.6550 0.6801
0.6560 0.6662 0.6792 0.6644 0.6848 0.6644
0.6709 0.6876 0.6691 0.6821 0.6719 0.6719
0.6710 0.6691 0.6831 0.6692 0.6877 0.6924
0.6590 0.6739 0.6776 0.6730 0.6860 0.6730
0.6730 0.6628 0.6703 0.6823 0.6694 0.6703
0.6564 0.6518 0.6676 0.6620 0.6583 0.6704
0.6630 0.6788 0.6788 0.6640 0.6807 0.6612
0.6714 0.6816 0.6752 0.6835 0.6659 0.6734
0.6669 0.6706 0.6780 0.6604 0.6762 0.6614
0.6558 0.6688 0.6707 0.6828 0.6744 0.6912
0.6838 0.6485 0.6699 0.6922 0.6903 0.6848
0.6681 0.6801 0.6839 0.6616 0.6709 0.6793
0.6793 0.6756 0.6682 0.6663 0.6747 0.6822
0.6571 0.6673 0.6757 0.6534 0.6674 0.6609
0.6739 0.6832 0.6684 0.6675 0.6443 0.6591
0.6610 0.6601 0.6917 0.6685 0.6694 0.6796
0.6694 0.6704 0.6583 0.6658 0.6797 0.6760
0.6612 0.6658 0.6751 0.6844 0.6900 0.6854
0.6743 0.6641 0.6836 0.6762 0.6715 0.6678
0.6623 0.6799 0.6716 0.6679 0.6763 0.6781
0.6670 0.6596 0.6708 0.6708 0.6838 0.6866
0.6560 0.6578 0.6671 0.6736 0.6746 0.6755
0.6885 0.6691 0.6700 0.6932 0.6914 0.6765
0.6599 0.6673 0.6794 0.6859 0.6738 0.6757
0.6887 0.6507 0.6488 0.6823 0.6813 0.6776
0.6730 0.6721 0.6758 0.6675 0.6749 0.6759
0.6601 0.6731 0.6731 0.6694 0.6862 0.6797
0.6602 0.6899 0.7029 0.6640 0.6668 0.6733
0.6575 0.6622 0.6798 0.6678 0.6659 0.6715
0.6724 0.6771 0.6586 0.6716 0.6725 0.6530
0.6707 0.6790 0.6679 0.6577 0.6494 0.6633
0.6763 0.6652 0.6652 0.6801 0.6810 0.6653
0.6709 0.6746 0.6755 0.6690 0.6635 0.6626
0.6626 0.6737 0.6682 0.6608 0.6571 0.6673
0.6766 0.6720 0.6599 0.6692 0.6646 0.6498
0.6674 0.6609 0.6767 0.6804 0.6777 0.6638
0.6536 0.6851 0.6601 0.6657 0.6787 0.6713
0.6843 0.6750 0.6917 0.6880 0.6612 0.6732
0.6797 0.6677 0.6705 0.6603 0.6742 0.6882
0.6576 0.6539 0.6613 0.6725 0.6660 0.6632
0.6781 0.6744 0.6762 0.6809 0.6744 0.6633
0.6744 0.6800 0.6689 0.6615 0.6513 0.6578
0.6523 0.6588 0.6681 0.6607 0.6774 0.6681
0.6644 0.6718 0.6737 0.6923 0.6775 0.6719
0.6784 0.6701 0.6617 0.6534 0.6720 0.6813
0.6785 0.6711 0.6665 0.6888 0.6795 0.6609
0.6675 0.6740 0.6731 0.6666 0.6796 0.6796
0.6629 0.6713 0.6685 0.6657 0.6713 0.6778
0.6769 0.6732 0.6797 0.6770 0.6723 0.6761
0.6798 0.6677 0.6733 0.6743 0.6669 0.6613
0.6641 0.6901 0.6790 0.6744 0.6864 0.6725
0.6790 0.6920 0.6883 0.6754 0.6726 0.6884
0.6856 0.6791 0.6921 0.6922 0.6625 0.6551
0.6801 0.6764 0.6755 0.6867 0.6876 0.6951
0.6756 0.6608 0.6830 0.6756 0.6589 0.6655
0.6701 0.6738 0.6720 0.6822 0.6646 0.6591
0.6906 0.6721 0.6619 0.6767 0.6786 0.6573
0.6647 0.6787 0.6722 0.6787 0.6629 0.6834
0.6834 0.6509 0.6723 0.6853 0.6602 0.6575
0.6705 0.6658 0.6761 0.6724 0.6687 0.6770
0.6808 0.6817 0.6659 0.6678 0.6743 0.6697
0.6781 0.6697 0.6651 0.6744 0.6661 0.6726
0.6735 0.6652 0.6791 0.6819 0.6791 0.6847
0.6764 0.6727 0.6857 0.6681 0.6811 0.6913
0.6672 0.6876 0.6709 0.6765 0.6942 0.6617
0.6645 0.6775 0.6859 0.6877 0.6748 0.6739
0.6859 0.6767 0.6860 0.6897 0.6721 0.6832
0.6749 0.6740 0.6861 0.6721 0.6805 0.6889
0.6583 0.6657 0.6871 0.6732 0.6825 0.6815
0.6843 0.6964 0.6797 0.6788 0.6751 0.6659
0.6835 0.6974 0.6891 0.6761 0.6799 0.6854
0.6947 0.6947 0.6818 0.6994 0.7022 0.6855
0.6790 0.6837 0.6911 0.6874 0.6819 0.6838
0.6819 0.6754 0.6801 0.6727 0.6727 0.6727
0.6672 0.6848 0.6718 0.6774 0.6802 0.6644
0.7007 0.6867 0.6701 0.6914 0.6886 0.6868
0.6813 0.6989 0.6998 0.6813 0.6897 0.6878
0.6804 0.6795 0.6786 0.6786 0.6721 0.6703
0.6833 0.6833 0.6815 0.6926 0.6880 0.6852
0.6806 0.6685 0.6611 0.6593 0.6760 0.6881
0.6862 0.6844 0.6751 0.6826 0.6928 0.6835
0.6900 0.6799 0.6836 0.6827 0.6623 0.6790
0.6827 0.6939 0.6716 0.6707 0.6818 0.6605
0.6856 0.6800 0.6763 0.6745 0.6782 0.7024
0.6810 0.6773 0.6690 0.6904 0.6922 0.6505
0.6700 0.6904 0.6960 0.6812 0.6738 0.6784
0.6766 0.6803 0.6785 0.6757 0.6692 0.6831
0.6850 0.6776 0.6915 0.6906 0.6702 0.6702
0.6767 0.6786 0.6833 0.6796 0.6879 0.6750
0.6703 0.6871 0.6899 0.6862 0.6778 0.6704
0.6704 0.6844 0.6927 0.6844 0.6816 0.6881
0.6891 0.6789 0.6817 0.6938 0.6799 0.6697
0.6734 0.6734 0.6753 0.6799 0.6827 0.6735
0.6828 0.6874 0.6754 0.6745 0.6828 0.6893
0.6893 0.6801 0.6690 0.6736 0.6894 0.6838
0.6755 0.6959 0.6950 0.6793 0.6765 0.6914
0.6914 0.6784 0.6914 0.6747 0.6784 0.6822
0.6627 0.6868 0.6887 0.6683 0.6563 0.6618
0.6674 0.6786 0.6832 0.6665 0.6879 0.6777
0.6814 0.7037 0.6648 0.6759 0.6963 0.6704
0.6769 0.6880 0.6723 0.6686 0.6825 0.6760
0.6566 0.6872 0.6891 0.6687 0.6900 0.6780
0.6873 0.6873 0.6595 0.6855 0.6762 0.6781
0.7115 0.6753 0.6725 0.6828 0.6781 0.7023
0.6949 0.6912 0.6773 0.6745 0.6866 0.6810
0.6875 0.6820 0.6950 0.6690 0.6533 0.6922
0.6774 0.6793 0.6867 0.6821 0.6849 0.6784
0.6849 0.6747 0.6655 0.6813 0.6785 0.6618
0.6618 0.6711 0.6850 0.6767 0.6767 0.6795
0.6638 0.6842 0.6851 0.6777 0.6768 0.6722
0.6991 0.6982 0.6787 0.6806 0.6834 0.6686
0.6639 0.6844 0.6751 0.6844 0.6891 0.6714
0.7021 0.6882 0.6603 0.6780 0.6771 0.6622
0.6660 0.6799 0.6697 0.6734 0.6874 0.6874
0.6772 0.6772 0.6800 0.6726 0.6745 0.6763
0.6875 0.6801 0.6866 0.6857 0.6838 0.6931
0.6607 0.6625 0.6830 0.6839 0.6700 0.6793
0.6728 0.6626 0.6858 0.6812 0.6803 0.6775
0.6785 0.6646 0.6655 0.6878 0.6822 0.6953
0.6981 0.6916 0.6897 0.6897 0.6777 0.6666
0.6870 0.6787 0.6666 0.6935 0.6852 0.6676
0.6899 0.6788 0.6723 0.6927 0.6714 0.6649
0.6807 0.6751 0.6779 0.6872 0.6845 0.6780
0.6854 0.6938 0.6901 0.6836 0.6818 0.6753
0.6725 0.6957 0.6818 0.6698 0.6874 0.6921
0.7014 0.6828 0.6819 0.6996 0.6921 0.6875
0.6708 0.6783 0.6801 0.6709 0.6820 0.6755
0.6793 0.6821 0.6737 0.6719 0.6793 0.6979
0.6914 0.6794 0.6822 0.6803 0.6646 0.6627
0.6915 0.6813 0.6767 0.6878 0.6665 0.6832
0.6833 0.6758 0.6991 0.6972 0.6842 0.6778
0.6917 0.6936 0.6787 0.6778 0.6871 0.6816
0.6677 0.6705 0.6760 0.6751 0.6863 0.6937
0.6863 0.6807 0.6817 0.6882 0.6632 0.6854
0.6947 0.6706 0.6846 0.6837 0.6883 0.6707
0.6846 0.6884 0.6772 0.6902 0.6689 0.6968
0.6875 0.6792 0.7014 0.6848 0.6857 0.6709
0.6764 0.6792 0.6756 0.6923 0.6867 0.6886
0.6895 0.6895 0.6961 0.6951 0.6831 0.6748
0.6878 0.6887 0.6980 0.6924 0.6767 0.6934
0.6786 0.6823 0.6981 0.6693 0.6758 0.6926
0.6917 0.6898 0.6759 0.6833 0.6806 0.6787
0.6917 0.6825 0.6714 0.6751 0.6890 0.6844
0.6881 0.6918 0.6687 0.6909 0.6910 0.6678
0.6854 0.6762 0.6790 0.6901 0.6901 0.6855
0.6827 0.6939 0.6781 0.6818 0.6856 0.6791
0.6875 0.6921 0.6958 0.6727 0.6875 0.6885
0.6736 0.6866 0.6634 0.6718 0.6820 0.6746
0.6756 0.6812 0.6904 0.6663 0.6803 0.6942
0.6868 0.6961 0.6748 0.6813 0.6915 0.6813
0.6887 0.6860 0.6841 0.6906 0.6860 0.6749
0.6814 0.6749 0.6879 0.6981 0.6685 0.6731
0.6722 0.6667 0.6815 0.6936 0.6927 0.6890
0.6983 0.6797 0.6714 0.6946 0.6900 0.6863
0.6919 0.6808 0.6947 0.6836 0.6947 0.7207
0.6762 0.6911 0.7013 0.6799 0.7032 0.6828
0.6995 0.7060 0.6670 0.6847 0.6884 0.6977
0.6819 0.6717 0.7042 0.6848 0.6876 0.6904
0.6727 0.6885 0.6783 0.6728 0.6858 0.6700
0.6756 0.6951 0.6831 0.6877 0.6933 0.6840
0.6850 0.6739 0.6850 0.6989 0.6832 0.6860
0.6814 0.6777 0.6962 0.6907 0.6656 0.6759
0.6861 0.6657 0.6657 0.6852 0.6945 0.6834
0.6741 0.6751 0.6899 0.6955 0.6946 0.7011
0.6928 0.6900 0.6761 0.6780 0.6928 0.6808
0.6826 0.6854 0.6808 0.6929 0.6818 0.6827
0.7013 0.7013 0.6939 0.6754 0.6902 0.6902
0.6893 0.7060 0.6921 0.6884 0.7024 0.7005
0.6801 0.6885 0.7024 0.6950 0.6820 0.6988
0.7006 0.6728 0.6895 0.6765 0.6821 0.6877
0.6868 0.6961 0.6692 0.7035 0.7063 0.6794
0.7017 0.6841 0.6860 0.7027 0.6740 0.7074
0.7065 0.6759 0.6833 0.6805 0.6982 0.6731
0.6917 0.7075 0.6945 0.7103 0.6992 0.6983
0.6872 0.6964 0.6946 0.6863 0.6807 0.6622
0.6845 0.6817 0.6919 0.6984 0.6752 0.6845
0.6799 0.7050 0.7078 0.6855 0.7069 0.6911
0.6846 0.6986 0.6884 0.6977 0.7051 0.7051
0.7181 0.6940 0.6959 0.7080 0.6903 0.6950
0.6811 0.6941 0.6997 0.6904 0.7062 0.6932
0.7007 0.6970 0.6979 0.7072 0.6794 0.6989
0.6980 0.6943 0.6952 0.6730 0.7064 0.6934
0.6851 0.6981 0.6777 0.6879 0.6935 0.7000
0.6898 0.6935 0.7075 0.6796 0.6797 0.7010
0.7010 0.6955 0.6806 0.6844 0.6974 0.6881
0.6983 0.6816 0.6770 0.6965 0.6984 0.7086
0.6789 0.6725 0.6882 0.6920 0.6994 0.6697
0.6735 0.7013 0.6828 0.6707 0.6809 0.6828
0.6856 0.6884 0.6856 0.6829 0.6838 0.6810
0.7043 0.7006 0.6867 0.7052 0.6635 0.6783
0.6960 0.6737 0.6970 0.6784 0.6784 0.6849
0.6952 0.7044 0.6933 0.6896 0.6859 0.6999
0.6887 0.6934 0.7055 0.6879 0.6944 0.7083
0.6842 0.6842 0.6981 0.6926 0.6991 0.7056
0.7103 0.6917 0.6973 0.7057 0.7020 0.7131
0.6974 0.6872 0.7048 0.7011 0.6909 0.7114
0.7021 0.7049 0.7290 0.7003 0.6743 0.6985
0.7180 0.6957 0.6892 0.7078 0.7060 0.7041
0.7060 0.6967 0.6902 0.7005 0.7218 0.7107
0.7098 0.7033 0.6736 0.6885 0.6978 0.6894
0.6895 0.6858 0.6848 0.6988 0.6895 0.6691
0.6830 0.6979 0.7026 0.6887 0.6896 0.6859
0.6887 0.7045 0.6915 0.6980 0.6897 0.6925
0.6944 0.6832 0.7074 0.6888 0.6879 0.6926
0.6815 0.7010 0.6908 0.7010 0.7149 0.6973
0.7131 0.7224 0.7001 0.6909 0.6983 0.6993
0.6918 0.7039 0.7076 0.6835 0.6780 0.6734
0.6975 0.7059 0.6725 0.6994 0.7115 0.7059
0.7106 0.6967 0.7134 0.7125 0.6726 0.6670
0.6838 0.6819 0.6959 0.7033 0.6931 0.6913
0.6913 0.6876 0.6904 0.6848 0.6941 0.7108
0.6821 0.6923 0.7053 0.6877 0.7007 0.7063
0.6942 0.6933 0.7026 0.6924 0.6841 0.7027
0.6943 0.6878 0.7008 0.7009 0.7037 0.6972
0.6981 0.6851 0.6814 0.7074 0.6963 0.6908
0.7028 0.7038 0.7001 0.7010 0.6871 0.6844
0.7002 0.6927 0.6909 0.6918 0.6891 0.6863
0.6770 0.7040 0.7170 0.7031 0.7049 0.6920
0.7040 0.6994 0.6846 0.6892 0.6726 0.6976
0.6930 0.6856 0.7004 0.6736 0.6958 0.6940
0.6931 0.7033 0.7015 0.7098 0.6941 0.6997
0.6830 0.6793 0.6988 0.6876 0.6672 0.6747
0.6942 0.6840 0.6896 0.6924 0.6933 0.6859
0.6850 0.7054 0.7092 0.6841 0.6739 0.6990
0.6860 0.6860 0.7000 0.6944 0.6991 0.6787
0.6768 0.6917 0.6806 0.6778 0.6917 0.6880
0.6825 0.6936 0.6936 0.6918 0.6798 0.6965
0.7039 0.6779 0.6928 0.6780 0.6845 0.7068
0.6743 0.6669 0.6827 0.6938 0.6957 0.7096
0.6976 0.6920 0.6986 0.6865 0.6977 0.6930
0.6930 0.6893 0.6856 0.6866 0.6940 0.7015
0.6922 0.7006 0.6904 0.6895 0.6997 0.7006
0.7016 0.6951 0.7062 0.6951 0.6831 0.6812
0.6989 0.7174 0.6906 0.6934 0.6962 0.7119
0.7147 0.6888 0.7036 0.7092 0.7148 0.7102
0.7111 0.7102 0.6944 0.6963 0.6945 0.7065
0.7029 0.6917 0.7057 0.7122 0.7020 0.6807
0.6927 0.7234 0.7039 0.6733 0.6854 0.6937
0.6928 0.7077 0.7123 0.7003 0.6864 0.6929
0.7105 0.6883 0.6725 0.6874 0.6846 0.6893
0.6958 0.7079 0.7209 0.7116 0.7228 0.7135
0.6959 0.7117 0.7117 0.6950 0.6931 0.7071
0.7127 0.7136 0.6923 0.6802 0.7090 0.6979
0.7044 0.7100 0.6849 0.6998 0.7072 0.7063
0.7026 0.7054 0.7027 0.6999 0.7120 0.6990
0.6897 0.7055 0.7213 0.7065 0.6916 0.7047
0.7186 0.7195 0.7038 0.7001 0.6954 0.6806
0.6992 0.7066 0.6899 0.6937 0.6965 0.6983
0.7086 0.7011 0.6919 0.7067 0.7179 0.7142
0.6947 0.6799 0.7115 0.7189 0.6901 0.7004
0.7152 0.6958 0.6883 0.7078 0.7274 0.7199
0.7116 0.7079 0.6959 0.7079 0.7098 0.7098
0.7098 0.7126 0.7099 0.6960 0.6997 0.6978
0.7025 0.6895 0.7081 0.7239 0.6979 0.7156
0.7165 0.7072 0.7156 0.7091 0.7017 0.6990
0.6897 0.6943 0.7073 0.6990 0.7037 0.7000
0.7120 0.7260 0.6926 0.7028 0.7075 0.6834
0.7094 0.7010 0.6973 0.7029 0.6983 0.7243
0.6983 0.6946 0.6909 0.6854 0.6993 0.7021
0.7179 0.6901 0.7123 0.7216 0.6920 0.7077
0.7143 0.7143 0.6911 0.6948 0.6967 0.6837
0.7134 0.6986 0.6791 0.7033 0.6940 0.6959
0.7033 0.6885 0.6903 0.6996 0.7071 0.6960
0.7006 0.6997 0.6839 0.6979 0.6988 0.6951
0.7063 0.7156 0.6924 0.6868 0.7128 0.7045
0.6906 0.6924 0.7119 0.7147 0.7036 0.6971
0.6990 0.7027 0.6879 0.7018 0.7111 0.7009
0.6982 0.6982 0.7149 0.7251 0.7149 0.7159
0.7242 0.7159 0.7261 0.7159 0.6900 0.7002
0.6965 0.7076 0.7114 0.6891 0.7086 0.7105
0.6845 0.7040 0.7170 0.6836 0.6948 0.7180
0.6939 0.7088 0.7134 0.7051 0.7153 0.6903
0.7144 0.7320 0.7042 0.7191 0.7107 0.7080
0.7108 0.7024 0.7108 0.7080 0.7071 0.7164
0.7229 0.6942 0.7137 0.7322 0.6831 0.6970
0.6924 0.6878 0.7314 0.7082 0.6962 0.7175
0.7036 0.6999 0.7157 0.7111 0.7111 0.7260
0.7009 0.6917 0.7204 0.7075 0.7149 0.7168
0.7075 0.7075 0.7001 0.7140 0.6927 0.6983
0.7085 0.7039 0.7095 0.7058 0.7188 0.7077
0.6919 0.6984 0.7105 0.7040 0.7012 0.6966
0.6892 0.7004 0.7189 0.7143 0.6976 0.7051
0.7069 0.7023 0.6986 0.7079 0.7033 0.6940
0.7117 0.7042 0.6848 0.6894 0.7117 0.7219
0.7099 0.6951 0.6969 0.6895 0.6867 0.7007
0.7072 0.7091 0.7100 0.7091 0.7045 0.7128
0.7026 0.7008 0.7184 0.7120 0.6990 0.6962
0.7157 0.7204 0.7055 0.7102 0.7121 0.7074
0.7121 0.7038 0.6991 0.6964 0.7140 0.7131
0.7094 0.7271 0.7011 0.7067 0.6983 0.6854
0.7095 0.7058 0.6975 0.6928 0.6993 0.7170
0.7244 0.7170 0.7096 0.7050 0.7124 0.7264
0.7217 0.7115 0.7273 0.7357 0.7069 0.7218
0.7255 0.6949 0.7163 0.7200 0.7107 0.7024
0.6885 0.7089 0.7099 0.6960 0.7081 0.7136
0.7062 0.7146 0.7137 0.7146 0.7286 0.7063
0.6989 0.7175 0.7175 0.7073 0.7082 0.6980
0.6851 0.6981 0.6999 0.7092 0.7157 0.7130
0.6861 0.6852 0.7130 0.7019 0.7065 0.7140
0.7019 0.6992 0.6992 0.7001 0.7159 0.7122
0.7030 0.7067 0.6928 0.6844 0.6984 0.7132
0.7216 0.7142 0.6919 0.7049 0.7003 0.6873
0.7068 0.7031 0.6939 0.7013 0.7227 0.7125
0.7079 0.7190 0.7070 0.7051 0.7098 0.7089
0.7015 0.7080 0.6894 0.6876 0.7173 0.6960
0.7015 0.7145 0.6997 0.7081 0.6997 0.6979
0.7118 0.7007 0.7035 0.7082 0.7082 0.6980
0.6943 0.7064 0.6943 0.7101 0.7092 0.6972
0.7148 0.7000 0.6786 0.7028 0.7167 0.6815
0.7047 0.7019 0.6797 0.7261 0.7094 0.6871
0.7057 0.7066 0.6927 0.6890 0.7011 0.7021
0.7049 0.7086 0.7114 0.7003 0.6910 0.6957
0.7012 0.7003 0.6985 0.7124 0.7041 0.6948
0.7004 0.7032 0.7116 0.7004 0.6967 0.7023
0.7051 0.6996 0.6949 0.7089 0.7080 0.7043
0.7006 0.7164 0.7099 0.6969 0.7201 0.6997
0.6932 0.7053 0.7146 0.7035 0.6822 0.7072
0.6989 0.7035 0.7203 0.7101 0.7073 0.6999
0.6971 0.6999 0.7018 0.7065 0.7204 0.7130
0.7148 0.7167 0.7158 0.7158 0.7001 0.7056
0.7038 0.7196 0.7233 0.7029 0.7085 0.7057
0.7020 0.7076 0.7151 0.7225 0.7253 0.7216
0.7160 0.7040 0.7077 0.7161 0.7115 0.7105
0.7031 0.7152 0.7022 0.6985 0.7125 0.7079
0.7227 0.6958 0.6949 0.7200 0.7033 0.7042
0.7163 0.7098 0.6941 0.7089 0.7201 0.7006
0.7043 0.7127 0.7006 0.7174 0.7072 0.6988
0.7221 0.7017 0.7100 0.7295 0.7323 0.7175
0.6943 0.7055 0.7083 0.7101 0.7055 0.6953
0.6962 0.7028 0.7056 0.6944 0.7019 0.7158
0.7075 0.7121 0.6982 0.6843 0.7038 0.7113
0.7196 0.7215 0.7113 0.7076 0.7048 0.7058
0.7123 0.6956 0.6956 0.7114 0.7040 0.7059
0.7059 0.7022 0.6920 0.6966 0.7087 0.6995
0.7023 0.7041 0.6930 0.7014 0.7051 0.7135
0.7098 0.6894 0.7200 0.7182 0.7126 0.7173
0.6959 0.7062 0.6988 0.6941 0.6988 0.7071
0.7211 0.7118 0.7211 0.7100 0.6942 0.7230
0.7212 0.6952 0.7110 0.7092 0.7082 0.7194
0.6962 0.7241 0.7241 0.6990 0.7185 0.7018
0.6926 0.7093 0.6898 0.6871 0.7066 0.6899
0.6955 0.6964 0.6936 0.7113 0.7048 0.7076
0.7067 0.7160 0.7178 0.7179 0.7234 0.7012
0.7012 0.6966 0.6975 0.6947 0.6948 0.7087
0.6976 0.7106 0.6985 0.7004 0.7088 0.7032
0.7060 0.6903 0.7172 0.6959 0.6931 0.7237
0.7033 0.7089 0.7098 0.7052 0.7080 0.7034
0.6951 0.7025 0.7183 0.7137 0.7063 0.7100
0.6998 0.6970 0.7100 0.7073 0.7138 0.7129
0.7147 0.7277 0.7129 0.6934 0.7111 0.7129
0.7018 0.7000 0.6935 0.7019 0.6991 0.7075
0.7084 0.6926 0.7056 0.7084 0.7103 0.7196
0.7187 0.7094 0.6965 0.7039 0.7039 0.7113
0.7197 0.7095 0.7086 0.7068 0.7003 0.6929
0.7003 0.6994 0.7022 0.7031 0.6874 0.6995
0.7050 0.7069 0.7041 0.7042 0.7135 0.7088
0.7228 0.7154 0.7033 0.7302 0.7219 0.7071
0.7303 0.7145 0.7080 0.7275 0.7025 0.6997
0.7127 0.6998 0.6905 0.7137 0.7165 0.7165
0.7314 0.7063 0.6859 0.6989 0.7129 0.6934
0.7055 0.7148 0.7074 0.7176 0.6981 0.7046
0.7167 0.7037 0.6982 0.7038 0.7047 0.7038
0.7187 0.7233 0.7113 0.6974 0.7076 0.7057
0.6928 0.7058 0.7030 0.6937 0.7058 0.7133
0.7114 0.7096 0.7152 0.7142 0.6994 0.7041
0.7004 0.7069 0.6995 0.6930 0.7097 0.6939
0.7116 0.7172 0.6940 0.6949 0.6996 0.7070
0.7126 0.7154 0.7117 0.7164 0.7266 0.7090
0.7043 0.7164 0.7034 0.7100 0.7137 0.7193
0.7276 0.7017 0.7007 0.7017 0.6961 0.6980
0.6906 0.7222 0.7166 0.6962 0.7166 0.7269
0.7278 0.7037 0.7028 0.7167 0.7204 0.7214
0.7093 0.7038 0.7112 0.7177 0.7103 0.7187
0.7113 0.7113 0.7048 0.6937 0.7123 0.6965
0.6947 0.7077 0.7058 0.7021 0.7049 0.7077
0.7068 0.7087 0.7115 0.7124 0.7059 0.7041
0.7041 0.7125 0.7144 0.7172 0.7190 0.7218
0.7228 0.7181 0.7414 0.7256 0.7303 0.7275
0.7071 0.7210 0.6923 0.7118 0.7118 0.7025
0.7257 0.7081 0.7239 0.6998 0.6961 0.7323
0.7091 0.7240 0.7203 0.6906 0.7082 0.7083
0.7064 0.7092 0.7167 0.7065 0.6991 0.7186
0.6935 0.6972 0.7158 0.7019 0.6945 0.7010
0.7131 0.7075 0.7178 0.7011 0.7011 0.7122
0.6844 0.6946 0.6965 0.7049 0.7030 0.6966
0.7207 0.6910 0.7003 0.7272 0.7180 0.7273
0.7096 0.7097 0.7069 0.6939 0.7153 0.6977
0.6884 0.7209 0.7320 0.7126 0.7089 0.7089
0.7080 0.7071 0.6904 0.7145 0.7238 0.7118
0.7099 0.6932 0.7081 0.7322 0.7155 0.7007
0.7109 0.7007 0.7035 0.7017 0.7119 0.7119
0.6887 0.7185 0.7185 0.7129 0.7231 0.7111
0.7120 0.7167 0.7065 0.6991 0.7093 0.7047
0.7131 0.7196 0.6973 0.7094 0.7150 0.7113
0.7057 0.6937 0.7030 0.7076 0.7132 0.7243
0.7114 0.6975 0.7040 0.7096 0.7198 0.6985
0.7059 0.7245 0.7115 0.7189 0.7060 0.7162
0.7255 0.7236 0.7134 0.6949 0.7042 0.7079
0.7079 0.7117 0.7209 0.7070 0.7080 0.7052
0.6969 0.7108 0.7127 0.7192 0.7109 0.7155
0.7146 0.7109 0.7165 0.7109 0.7035 0.6943
0.7230 0.7249 0.7082 0.7110 0.7203 0.7203
0.7138 0.7352 0.7185 0.7000 0.6953 0.6824
0.7093 0.7130 0.6954 0.7056 0.7056 0.7057
0.6973 0.7020 0.7280 0.7187 0.7002 0.7067
0.7141 0.6965 0.7002 0.7160 0.7095 0.7114
0.7049 0.6947 0.7040 0.7235 0.7161 0.7004
0.7097 0.7227 0.7078 0.7078 0.7171 0.7069
0.7060 0.7209 0.7255 0.7135 0.7246 0.7005
0.6857 0.7089 0.6969 0.7034 0.7127 0.7173
0.7238 0.7146 0.7035 0.7146 0.7239 0.7091
0.7165 0.7091 0.7073 0.7277 0.7138 0.7147
0.7129 0.7027 0.7194 0.7166 0.7194 0.7269
0.7176 0.7139 0.7260 0.7195 0.7037 0.7288
0.7140 0.6982 0.7187 0.7177 0.7113 0.7011
0.7057 0.7122 0.7160 0.7169 0.7216 0.7132
0.7216 0.7309 0.7198 0.7318 0.7142 0.7077
0.7235 0.7170 0.7152 0.7115 0.6958 0.7078
0.7255 0.7255 0.7283 0.7200 0.7125 0.7153
0.7135 0.6977 0.7042 0.7163 0.6996 0.6932
0.6987 0.7192 0.7145 0.7062 0.7146 0.7072
0.7127 0.7118 0.7304 0.7146 0.6859 0.7100
0.7147 0.7193 0.7129 0.7055 0.7055 0.7111
0.7185 0.7129 0.7111 0.7102 0.7130 0.7186
0.7158 0.7084 0.7223 0.7316 0.7261 0.7131
0.7075 0.7150 0.7178 0.7261 0.7299 0.7206
0.7215 0.7345 0.7206 0.7086 0.7095 0.7105
0.7179 0.7152 0.7170 0.7226 0.7254 0.7189
0.7162 0.7199 0.7273 0.7264 0.7097 0.7023
0.7097 0.7330 0.7274 0.7061 0.7219 0.7284
0.7117 0.7238 0.7349 0.7303 0.7220 0.7071
0.7090 0.7146 0.7137 0.7100 0.7220 0.7211
0.7044 0.7035 0.7165 0.7203 0.7175 0.7212
0.7314 0.7342 0.7073 0.7111 0.7259 0.7324
0.7380 0.7195 0.7149 0.7177 0.7084 0.7112
0.7251 0.7159 0.7057 0.7233 0.7196 0.7085
0.7252 0.7095 0.7141 0.7113 0.6956 0.7244
0.7290 0.7151 0.7031 0.7077 0.7068 0.7180
0.7282 0.7245 0.7217 0.7301 0.7579 0.7264
0.7106 0.7116 0.7255 0.7404 0.7144 0.7265
0.7144 0.7070 0.7219 0.7043 0.7154 0.7275
0.7359 0.7424 0.7229 0.7081 0.7248 0.7276
0.7109 0.7202 0.7184 0.7109 0.7082 0.7277
0.7333 0.7156 0.7259 0.7203 0.7296 0.7185
0.7111 0.7324 0.7213 0.7074 0.6963 0.7000
0.7010 0.7065 0.7335 0.7131 0.7140 0.7521
0.7298 0.7196 0.7215 0.7141 0.7243 0.7225
0.7243 0.7206 0.7281 0.7327 0.7300 0.7281
0.7207 0.7189 0.7077 0.7133 0.7078 0.7254
0.7403 0.7023 0.7292 0.7422 0.7171 0.7237
0.7209 0.7135 0.7098 0.7163 0.7163 0.7163
0.7247 0.7210 0.7043 0.7229 0.7303 0.7127
0.7201 0.7137 0.7109 0.7146 0.7044 0.7165
0.7156 0.7267 0.7360 0.7045 0.7203 0.7184
0.7055 0.7278 0.7148 0.7111 0.7083 0.7213
0.7343 0.7213 0.7241 0.7177 0.7307 0.7418
0.7149 0.7279 0.7391 0.7066 0.7122 0.7280
0.7150 0.7104 0.7067 0.7104 0.7188 0.7179
0.7188 0.7133 0.7161 0.7254 0.7281 0.7152
0.6911 0.7143 0.7264 0.7143 0.7273 0.7190
0.7106 0.7144 0.7162 0.7125 0.7190 0.7218
0.7154 0.7265 0.7349 0.7182 0.6996 0.7247
0.7266 0.7080 0.7211 0.7211 0.7081 0.7025
0.7165 0.7221 0.7239 0.7221 0.7240 0.7212
0.7026 0.7268 0.7314 0.7073 0.7120 0.7138
0.7231 0.7074 0.7018 0.7139 0.6926 0.7223
0.7260 0.7084 0.7158 0.6991 0.7112 0.7094
0.7038 0.7159 0.7131 0.7122 0.7030 0.7048
0.7206 0.7244 0.7225 0.7058 0.6947 0.7161
0.7309 0.7217 0.7022 0.7235 0.7393 0.7319
0.7310 0.7162 0.7190 0.7162 0.7144 0.7237
0.7163 0.7163 0.7116 0.7107 0.7330 0.7191
0.7061 0.7126 0.7145 0.7136 0.7062 0.7220
0.7211 0.7239 0.7220 0.7063 0.7221 0.7156
0.7165 0.7202 0.7138 0.7314 0.7314 0.7240
0.7138 0.7111 0.7315 0.7250 0.7194 0.7232
0.6981 0.7065 0.7093 0.7056 0.7205 0.7066
0.7288 0.7289 0.7085 0.7335 0.7243 0.7113
0.7262 0.7252 0.7169 0.7318 0.7392 0.7169
0.7225 0.7281 0.7114 0.7142 0.7068 0.7226
0.7338 0.7217 0.7319 0.7273 0.7217 0.7162
0.7273 0.7376 0.7264 0.7218 0.7144 0.7367
0.7441 0.7274 0.7284 0.7256 0.7293 0.7284
0.7312 0.7396 0.7276 0.7359 0.7341 0.7174
0.7304 0.7174 0.7211 0.7490 0.7258 0.7156
0.7351 0.7444 0.7203 0.7194 0.7305 0.7092
0.7074 0.7176 0.7260 0.7353 0.7362 0.7195
0.7205 0.7390 0.7196 0.7168 0.7279 0.7094
0.7196 0.7317 0.7234 0.7271 0.7308 0.7290
0.7281 0.7281 0.7299 0.7262 0.7170 0.7393
0.7421 0.7263 0.7189 0.7068 0.7217 0.7226
0.7069 0.7245 0.7273 0.7227 0.7459 0.7339
0.7311 0.7293 0.7246 0.7293 0.7247 0.7228
0.7219 0.7423 0.7294 0.7229 0.7201 0.7211
0.7304 0.7211 0.7332 0.7285 0.7267 0.7137
0.7277 0.7379 0.7249 0.7249 0.7101 0.7120
0.7055 0.7203 0.7268 0.7250 0.7250 0.7260
0.7390 0.7260 0.7325 0.7167 0.7214 0.7344
0.7270 0.7298 0.7103 0.7252 0.7252 0.7206
0.7327 0.7243 0.7188 0.7346 0.7466 0.7151
0.7160 0.7272 0.7179 0.7272 0.7180 0.7133
0.7254 0.7282 0.7236 0.7115 0.7218 0.7338
0.7264 0.7153 0.7190 0.7246 0.7311 0.7348
0.7209 0.7321 0.7191 0.7275 0.7368 0.7201
0.7340 0.7210 0.7257 0.7322 0.7285 0.7257
0.7118 0.7239 0.7490 0.7351 0.7054 0.7323
0.7296 0.7249 0.7342 0.7324 0.7333 0.7157
0.7176 0.7065 0.7204 0.7334 0.7093 0.7204
0.7390 0.7372 0.7196 0.7149 0.7298 0.7261
0.7289 0.7261 0.7122 0.7206 0.7252 0.7290
0.7290 0.7253 0.7151 0.7058 0.7096 0.7068
0.7291 0.7235 0.7189 0.7300 0.7096 0.7245
0.7162 0.7125 0.7450 0.7431 0.7302 0.7218
0.7320 0.7181 0.7098 0.7469 0.7312 0.7228
0.7266 0.7173 0.7349 0.7275 0.7229 0.7164
0.7201 0.7341 0.7322 0.7285 0.7202 0.7230
0.7221 0.7351 0.7193 0.7194 0.7333 0.7166
0.7417 0.7417 0.7101 0.7102 0.7213 0.7093
0.7195 0.7167 0.7093 0.7270 0.7298 0.7353
0.7047 0.7150 0.7242 0.7141 0.7252 0.7085
0.7113 0.7104 0.7216 0.7373 0.7271 0.7142
0.7170 0.7318 0.7179 0.7328 0.7337 0.7152
0.7375 0.7301 0.7282 0.7227 0.7199 0.7273
0.7125 0.7320 0.7311 0.7190 0.7246 0.7237
0.6940 0.6783 0.6894 0.6746 0.7052 0.7090
0.7053 0.7572 0.7545 0.7378 0.7276 0.6998
0.6757 0.6701 0.6813 0.6868 0.7221 0.7806
0.7936 0.7973 0.7741 0.7083 0.6619 0.6146
0.6174 0.6313 0.6610 0.7334 0.7715 0.8058
0.8049 0.7604 0.6713 0.5962 0.5832 0.6036
0.6909 0.7902 0.8626 0.8997 0.8867 0.8496
0.7457 0.6074 0.4980 0.4293 0.4627 0.6038
0.7699 0.9175 1.0223 1.0511 0.9908 0.8387
0.6596 0.5241 0.4248 0.3812 0.4675 0.6290
0.8035 0.9436 0.9798 0.9353 0.8379 0.7488
0.6885 0.6690 0.7210 0.8092 0.9224 1.0588
1.1257 1.0988 1.0348 0.9132 0.7666 0.6330
0.5838 0.6497 0.7453 0.8038 0.8085 0.7983
0.8122 0.8633 0.8373 0.7167 0.6137 0.5292
0.5664 0.7204 0.8003 0.8513 0.9135 0.9293
0.9339 0.8978 0.7948 0.6491 0.5350 0.5211
0.5443 0.5369 0.5165 0.5620 0.6696 0.7763
0.8543 0.8812 0.8961 0.9434 0.9982 1.0205
0.9964 0.9843 0.9574 0.8897 0.8044 0.5640
0.2727 0.1010 0.0528 0.1966 0.5038 0.7748
0.8202 0.7776 0.8101 0.8778 0.9391 0.8630
0.5670 0.2274 0.0984 0.2107 0.4149 0.5661
0.6126 0.6079 0.5476 0.4446 0.2980 0.2080
0.3064 0.5069 0.8215 1.1583 1.3755 1.4757
1.4627 1.3236 0.9700 0.5515 0.2231 0.0328
0.0672 0.2231 0.3799 0.4263 0.3456 0.3085
0.3642 0.4598 0.6046 0.7716 0.9238 1.1252
1.4138 1.7210 1.9706 2.1395 2.1609 1.9772
1.6979 1.3722 1.0632 0.8581 0.6289 0.2986
-0.0531 -0.2999 -0.3426 -0.2099 -0.0280 0.0620
0.1010 0.1864 0.3999 0.8880 1.5608 2.0619
2.1528 1.8698 1.4365 1.0987 0.9224 0.8120
0.5912 0.2265 -0.0871 -0.1790 -0.1279 -0.0834
0.0688 0.4075 0.8483 1.1008 0.9996 0.7083
0.4670 0.5097 0.8076 1.2716 1.6576 1.7486
1.6233 1.3116 1.0230 0.9497 1.0156 1.1316
1.2838 1.3478 1.2727 1.0945 0.6900 0.2084
-0.1600 -0.3391 -0.3790 -0.3873 -0.2528 0.0024
0.2307 0.4015 0.5797 0.7031 0.8330 0.9370
0.7505 0.4767 0.3134 0.1947 0.1687 0.1984
0.2727 0.5139 0.8443 1.0902 1.1960 1.1478
1.0829 1.0587 1.0142 0.9734 0.9382 0.9753
1.1451 1.2751 1.0728 0.5216 -0.0426 -0.3748
-0.4026 0.0150 0.7267 1.3346 1.5851 1.4729
1.2557 1.1704 1.2279 1.1982 1.0210 0.7352
0.4652 0.4819 0.7148 0.8689 0.8132 0.7362
0.6852 0.4885 0.1758 -0.2019 -0.6287 -0.8477
-0.6380 0.0107 0.8570 1.4546 1.7145 1.7999
1.7572 1.5465 1.3424 1.2840 1.2246 1.0947
0.8182 0.5008 0.3023 0.1018 -0.1691 -0.3909
-0.3909 -0.2053 0.0184 0.3107 0.6355 0.9019
1.1524 1.2990 1.2397 1.1005 1.0031 0.9752
0.8825 0.5011 0.1290 0.1086 0.3675 0.8890
1.3150 1.4143 1.6018 2.0602 2.6448 2.9956
2.8518 2.3665 1.6714 0.9504 0.4753 0.3194
0.5032 0.7881 0.8122 0.6786 0.5664 0.5070
0.4532 0.4003 0.4977 0.6824 0.9042 1.1622
1.2300 1.1409 1.1920 1.4342 1.5891 1.4964
1.2570 0.9053 0.5917 0.3374 -0.0588 -0.5079
-0.7789 -0.8958 -0.9969 -0.9672 -0.6174 -0.1079
0.3134 0.6558 0.9175 0.9073 0.4406 -0.1858
-0.4901 -0.5124 -0.2256 0.5557 1.4967 2.1853
2.6186 2.6966 2.1890 1.4207 0.7554 0.2552
0.0455 -0.0482 -0.1169 0.0836 0.6274 1.2603
1.7094 1.7929 1.2779 0.4549 -0.1734 -0.5965
-1.0085 -1.5244 -1.9503 -1.8482 -1.2627 -0.7198
-0.2484 0.4216 1.2865 2.2562 3.0125 3.2232
2.9170 2.2433 1.3701 0.5581 0.0700 -0.0023
0.2566 0.7605 1.3804 2.0160 2.7092 3.0981
2.7984 2.0987 1.3628 0.9490 0.9954 1.2098
1.2033 0.7653 0.0499 -0.6841 -1.0822 -1.1685
-1.2631 -1.2984 -1.1184 -0.6896 -0.0094 0.7924
1.4429 1.9421 2.3291 2.4470 2.1695 1.4151
0.4491 -0.4287 -1.1831 -1.8485 -2.3134 -2.1788
-1.4745 -0.6495 0.2562 1.4199 2.6457 3.5273
3.8994 3.6341 2.8629 2.1308 1.5870 1.1388
0.8048 0.4355 -0.0071 -0.3078 -0.3180 -0.0739
0.3270 0.5618 0.2389 -0.2400 -0.4125 -0.6603
-1.0491 -1.1660 -0.9145 -0.5906 -0.4654 -0.4876
-0.4635 -0.1684 0.4311 1.3647 2.6842 4.0558
5.0218 5.2714 4.5449 3.0805 1.7174 1.2163
1.4539 1.6432 1.5170 1.1876 0.5900 -0.2832
-0.8455 -0.6692 -0.0892 0.7850 1.7779 2.1398
1.5682 0.9112 0.5762 0.2218 -0.2153 -0.9029
-1.5023 -1.6081 -1.2323 -0.2987 0.8733 1.7651
1.8913 1.1044 -0.4369 -2.1694 -3.3117 -3.7219
-3.7079 -3.5121 -2.6890 -0.7393 1.8469 4.0035
5.0104 5.0326 4.7552 4.3209 3.4060 2.1273
0.7121 -0.2195 -0.0293 0.7808 1.0899 0.3698
-0.7243 -1.4128 -1.5102 -1.2235 -0.9014 -0.5006
-0.0607 0.1240 0.0535 -0.3307 -0.6016 -0.2425
0.7597 2.1934 2.8894 2.4477 1.4279 0.1622
-0.7528 -1.1286 -0.5811 1.1385 3.1633 4.4921
4.8541 4.7993 4.6165 4.3242 4.2166 4.2825
4.3493 4.5999 5.3154 5.8647 5.1920 3.5430
1.6389 -0.3878 -1.8382 -2.4237 -2.8979 -3.3646
-3.5446 -3.1530 -2.3438 -1.8520 -1.7471 -1.4613
-0.5101 0.9848 2.2311 2.6088 2.3388 2.0103
1.8340 1.6800 1.4239 1.5362 2.2470 2.8919
3.1917 2.9569 1.8323 0.0246 -1.6828 -2.3138
-1.6809 -0.3558 0.9127 1.3034 0.8933 0.5750
0.4618 0.2985 -0.2072 -1.3486 -2.2199 -1.9935
-0.7918 0.7459 1.7824 2.3856 2.5424 1.9699
1.2684 0.7320 -0.1625 -1.5619 -3.0753 -3.9513
-3.5244 -2.5928 -2.1752 -2.1037 -1.9339 -1.5181
-1.2388 -0.9641 -0.4825 -0.2495 0.0279 0.6144
1.0376 1.2659 1.5860 2.0454 2.7210 3.3047
3.4142 3.2138 2.5725 1.4284 0.3705 0.0049
0.3631 0.9979 1.2902 0.7984 0.3400 0.7993
1.6438 2.1022 1.4545 -0.1592 -1.0379 -0.3911
0.9906 1.8657 1.4583 0.6037 0.6612 2.3297
4.8167 6.1195 5.0886 2.6796 1.1986 1.4585
2.3048 2.9080 3.3200 3.9566 5.4024 6.7572
6.2246 3.2217 -0.5671 -2.5233 -2.8814 -2.8035
-2.7376 -3.3120 -4.0794 -4.5183 -4.2223 -2.9556
-1.1405 0.7238 1.9692 2.8034 3.5551 3.7388
3.1923 1.9971 0.2145 -1.7352 -2.6093 -1.8251
-0.8201 -0.7394 -1.2312 -1.6645 -1.2210 0.4048
2.1633 2.6997 1.9648 1.0554 0.7009 1.1890
1.9342 1.9806 1.9992 2.7778 3.2241 2.7305
2.0512 1.1381 0.3058 0.2445 0.8904 1.9492
2.4411 1.5456 -0.1266 -1.5333 -2.9021 -4.1938
-4.3023 -3.0858 -1.4433 -0.3483 -0.6331 -2.0427
-3.4754 -4.8089 -5.7777 -5.9957 -6.0625 -6.0273
-4.7578 -2.0444 -0.0047 0.8490 1.3659 0.9307
0.7312 1.8596 3.1615 3.9308 3.6655 2.0508
-0.0380 -0.5883 0.8139 2.5780 3.9328 4.2762
4.2168 5.5540 7.3951 7.3775 5.6357 4.0322
2.8277 2.0733 2.3387 2.8695 3.2593 3.6778
4.3125 4.7589 4.1966 2.7963 1.1483 0.3326
0.2853 0.1591 0.3094 0.6862 1.1780 1.6021
0.9359 -1.1168 -3.5508 -5.6424 -7.8945 -9.6140
-9.3106 -6.6325 -1.7588 3.3533 6.1818 6.7200
7.1200 8.6279 9.4408 8.0322 5.0089 1.8854
0.7227 0.9222 0.1223 -1.9108 -3.9393 -4.8858
-4.1833 -1.9061 0.6031 1.9821 1.5348 -0.7173
-3.1272 -3.9577 -3.5290 -3.1513 -3.5188 -4.0273
-3.2942 -1.5849 0.4817 2.4945 3.2907 3.7621
5.1002 5.4353 3.6443 1.3337 -0.3171 -1.2358
-1.2822 -0.3626 0.9709 2.4548 3.5832 4.1298
5.4243 7.2932 8.9274 10.1987 10.3360 9.3394
7.4659 4.7247 1.5112 -2.3296 -6.3653 -9.2772
-10.9002 -10.9290 -8.7306 -5.8437 -3.5470 -1.6085
-0.3882 0.1222 0.3746 1.0103 2.6212 4.7082
6.6635 8.2809 8.8590 8.2717 7.6778 6.8872
5.2930 4.2796 4.9738 6.3221 6.8176 6.1653
4.2649 1.2490 -2.1538 -4.9507 -6.6516 -7.7280
-9.0420 -10.8710 -11.9149 -11.3804 -9.4391 -7.0143
-5.1723 -3.3461 -2.2065 -2.6269 -3.3767 -4.2990
-6.0714 -7.9283 -8.9926 -8.9982 -7.2647 -4.2229
-1.3155 1.2577 3.7530 6.6223 9.8135 11.8226
11.6537 9.6623 6.2298 1.6049 -2.3408 -3.5944
-1.6559 2.8391 7.6423 10.3928 10.3557 8.1332
4.2414 0.0637 -3.2983 -6.1870 -8.1506 -9.2604
-9.5221 -7.7264 -3.0272 3.2829 8.1436 10.2426
9.9281 8.1696 5.9100 3.4175 1.3965 0.1484
-0.4409 -0.6821 -1.1600 -1.6388 -0.9827 0.8324
2.3969 2.9880 2.2865 0.7888 -1.0253 -3.3016
-5.1826 -6.1718 -6.3815 -5.9499 -5.1844 -4.0318
-3.2198 -3.5530 -4.4809 -5.5499 -5.9415 -4.6099
-1.6571 2.0084 4.5649 5.3797 4.9575 3.8792
3.7605 4.8861 6.0145 5.7677 3.6751 1.5928
1.7775 4.0092 6.0239 6.4990 5.7344 4.4213
3.4423 3.5203 3.7579 2.8856 1.5679 0.7226
0.5203 0.9769 1.1625 0.6252 0.1417 -0.2369
-0.3955 0.0276 0.9510 1.8725 2.2743 2.4784
2.4311 1.6860 0.0194 -2.3237 -4.5721 -6.0726
-5.9650 -4.2575 -2.4136 -1.2268 -0.1846 1.0987
2.4239 3.4289 3.4382 1.6964 -0.8128 -1.7379
-0.6801 0.8734 1.0033 -1.0939 -3.7627 -5.5239
-6.3201 -6.4491 -5.7698 -4.2145 -2.5024 -1.1680
-0.2642 0.5237 0.8476 0.4727 0.7298 2.1579
3.8960 5.5218 7.1847 8.7502 9.8480 10.2359
9.0602 6.3542 3.4442 0.2316 -3.5637 -6.9712
-8.8726 -8.4559 -5.7834 -1.6808 2.2593 4.0252
2.7632 -0.2452 -2.9205 -4.8646 -6.3549 -7.4183
-8.2998 -8.2692 -6.2203 -2.3655 1.8076 5.1232
7.0895 7.5600 7.0292 5.9454 4.9469 4.7177
5.1975 6.1171 7.2400 8.2756 8.8565 8.3350
6.2323 3.3343 1.2649 1.1081 3.0318 6.1544
8.5857 8.6441 6.7493 4.5667 2.8027 1.5917
0.8475 0.1822 -0.7727 -2.1971 -4.1699 -6.1882
-7.2062 -7.2414 -6.6642 -5.4940 -3.8729 -2.1200
-1.0955 -1.1725 -2.1477 -3.7104 -4.9502 -5.4039
-5.0559 -3.5387 -1.0833 1.8194 5.3828 9.3266
12.9531 16.0738 17.6922 16.5815 13.4348 10.1470
7.9608 7.3919 7.6518 7.2685 6.1986 4.2397
1.3454 -1.1990 -2.8990 -3.9541 -3.8520 -2.2476
-0.3341 0.8157 1.0254 -0.1763 -2.1092 -3.4585
-4.6184 -6.0465 -7.5155 -8.3952 -7.3994 -4.3539
-0.4852 2.1187 2.4073 1.3281 -0.0518 -1.1458
-1.8956 -2.3772 -2.4700 -1.7591 -0.6029 0.1571
0.2472 -0.2010 0.2323 2.4622 5.3287 7.3415
8.2305 8.1572 6.7504 4.2245 1.4073 -0.9497
-2.4224 -2.6804 -1.7069 -0.4672 -0.1581 -1.3812
-3.8031 -6.0980 -6.9266 -5.9198 -3.2305 0.3217
3.4276 5.8329 7.7130 8.8507 9.1903 8.9472
7.8095 5.3996 2.0089 -1.8078 -4.1100 -4.2492
-3.4771 -2.6262 -2.8340 -3.6191 -4.3883 -5.3246
-5.8768 -5.7116 -4.2658 -2.1881 -0.8620 -0.1623
-0.1085 -0.5520 -0.4202 1.1109 4.3736 8.2507
11.3148 13.1652 14.1739 15.1826 16.3398 17.0163
16.3147 13.7295 9.8655 5.6136 1.5834 -1.8324
-4.5522 -6.2439 -6.6401 -6.2902 -6.3125 -6.7876
-7.3536 -8.1739 -8.5618 -8.1006 -6.5620 -3.4459
0.3040 3.4052 5.3234 5.4180 4.0215 2.7808
2.6602 3.4193 4.3602 5.3736 6.4463 7.1766
7.5265 7.8884 8.9546 10.6630 12.1608 12.4382
10.9544 8.6058 6.4882 5.0555 4.0412 2.3254
-0.0900 -2.0490 -2.9834 -3.0892 -2.9407 -2.6168
-1.9078 -1.0485 -0.6810 -1.4011 -2.9527 -4.9580
-7.1609 -8.8665 -9.9875 -10.5182 -10.0375 -8.5834
-6.6737 -5.5657 -6.0575 -7.6684 -9.9511 -12.8371
-15.7991 -18.2118 -20.1354 -21.4160 -21.5840 -20.3108
-17.4981 -13.2926 -8.3113 -3.1704 1.7822 5.1451
6.4173 7.0261 8.0589 9.9223 12.2236 13.8569
14.0026 13.3122 13.3948 14.4972 15.6108 15.7194
14.4657 12.1672 9.5355 7.5423 6.5484 6.9122
8.7988 11.5548 14.1355 15.0718 14.1541 12.3594
10.3903 8.6105 6.8836 5.2866 4.4375 4.3688
4.4505 4.4143 4.0376 2.6837 0.1847 -2.7457
-5.0814 -5.6530 -4.0680 -1.5616 0.0633 -0.1548
-1.8158 -3.6077 -4.2294 -3.0546 -0.3338 2.2905
3.3307 3.5934 4.6837 6.7911 9.2076 10.9958
11.0756 9.4934 7.1652 5.1506 4.0018 3.0534
1.7924 0.8236 1.0389 2.1719 3.0572 2.6044
0.3866 -2.4186 -4.4518 -5.3714 -5.2489 -4.6410
-3.9163 -3.2305 -2.9818 -3.6286 -5.3184 -7.4573
-9.2260 -9.6983 -8.7648 -7.7598 -7.8191 -9.1025
-11.0066 -12.4097 -12.0747 -9.7399 -6.3872 -3.2395
-0.9568 0.1280 -0.1717 -1.2444 -1.5701 0.1717
3.1941 6.1627 8.6951 10.3747 10.6466 9.1665
6.9125 5.0538 4.0285 4.0034 4.8878 6.6407
8.3816 9.0915 8.7250 7.9093 7.5483 7.8546
8.8020 10.3471 12.0425 13.5022 13.9300 12.7766
10.0781 6.2465 2.8428 1.0491 0.5424 0.2204
-0.6222 -1.5659 -2.0744 -2.0057 -1.4647 0.0414
2.6527 4.9587 6.2709 6.5038 5.3884 3.1307
0.6196 -0.8558 -0.6340 1.0243 2.5944 2.6009
1.3936 0.2597 -0.2961 -0.4799 -0.0678 1.0392
2.3551 3.0242 2.0712 -0.7526 -4.5925 -8.0343
-10.0554 -10.4302 -9.3529 -6.9596 -3.5716 -0.3033
1.4320 1.3791 0.3667 -1.1236 -3.1029 -5.0080
-5.5156 -4.7556 -4.3547 -4.7249 -5.3067 -5.5406
-5.1313 -4.7007 -4.4882 -3.5992 -1.7656 0.6054
3.0961 5.0754 6.6585 8.2890 9.5955 9.9287
9.1362 7.2033 4.0585 0.3930 -2.7063 -4.7515
-6.3337 -8.0374 -9.5685 -10.4677 -10.7006 -10.5271
-9.7930 -8.4679 -6.9266 -5.1365 -2.6932 0.1278
2.5851 4.4754 5.4163 4.6935 2.6130 0.8814
1.2257 3.7591 6.9875 9.3649 10.2186 9.7705
8.4518 6.1951 2.8359 -0.9641 -3.7387 -3.8417
-1.0569 2.3896 4.4896 4.9109 4.1119 2.8072
1.3772 -0.8508 -3.9028 -6.5122 -8.4349 -9.5559
-9.9122 -9.8927 -9.6876 -9.7581 -10.0412 -10.5125
-11.3096 -12.2719 -13.0403 -13.2314 -12.8463 -11.8135
-10.3315 -8.7205 -6.4294 -3.6984 -1.2049 0.8524
2.1617 3.4525 5.2881 7.1755 8.8078 10.2657
11.4321 12.1049 12.1736 10.6434 7.3111 3.8981
1.3360 -0.8539 -3.0801 -5.0223 -5.8120 -5.2793
-3.9449 -2.6393 -1.9730 -1.8922 -2.4657 -3.1013
-3.0438 -2.4786 -1.8309 -1.0765 0.3183 2.6271
5.6671 9.0662 12.1693 14.6312 17.0727 19.7304
21.8721 22.8725 23.0896 23.4098 24.2125 25.2620
25.6880 24.8955 22.8457 19.2953 13.8863 7.3766
2.3833 0.7427 1.4498 2.7601 3.5006 3.5025
3.5266 3.4199 2.8724 1.4592 -1.7154 -6.2939
-11.1462 -14.8998 -16.9273 -17.4943 -16.6545 -14.2474
-10.2181 -5.8521 -2.4539 -0.0226 1.6747 3.1241
4.7082 6.7339 9.6895 12.9281 15.3668 16.5954
16.1955 13.7058 9.6785 5.6715 2.3281 -0.5949
-3.0865 -5.5678 -8.3434 -10.5630 -11.9002 -12.4468
-12.4161 -13.0184 -14.3917 -15.7261 -16.7032 -17.5031
-18.2817 -18.6788 -18.6074 -17.7063 -15.1915 -10.3782
-3.8267 1.9489 5.0984 5.9308 5.7350 5.0279
3.5386 1.6279 0.5181 1.3356 3.9042 7.3590
10.6134 12.4072 12.7106 12.1158 10.4502 7.4491
3.8951 1.4035 0.4626 -0.1341 -1.6522 -4.5493
-8.0588 -10.7749 -12.2068 -12.6995 -12.9602 -13.5448
-13.8798 -12.6985 -9.8589 -6.6176 -4.1204 -2.6709
-1.9258 -0.7537 1.8195 5.3421 9.5745 14.5428
19.4536 23.0448 24.6808 24.9611 24.0127 22.4018
21.2586 20.6638 20.4095 19.6050 17.3584 14.4743
12.6537 12.6602 13.5028 13.7302 12.5164 10.1334
7.6836 5.4807 2.7191 -1.2414 -5.9230 -10.6686
-15.3631 -19.4183 -21.5785 -21.1563 -18.8670 -16.2604
-14.3673 -13.0858 -12.2005 -11.8367 -11.3709 -10.1812
-8.3809 -5.5497 -1.5400 2.7036 6.3199 8.6593
10.0104 11.3671 12.6718 13.9236 15.2980 16.7474
17.7125 17.2903 15.7546 13.6193 11.2707 8.6836
6.2829 4.3250 2.3132 0.5992 -0.8976 -2.2700
-3.6526 -5.9224 -9.3419 -13.7061 -18.5519 -22.1997
-23.3374 -22.0623 -19.5299 -17.1961 -14.9281 -12.4421
-9.8225 -7.7132 -7.0024 -7.6733 -9.2434 -10.0061
-8.7404 -5.5120 -1.3473 2.5260 5.8110 7.6957
7.9082 7.0118 5.3889 3.5803 1.7494 0.2276
-0.2800 0.4800 2.5178 5.0688 6.4636 5.7370
3.5424 0.9701 -1.1392 -2.0458 -2.4077 -3.2001
-4.6486 -7.2358 -9.9491 -11.2705 -11.8839 -12.2671
-12.2133 -11.9145 -11.3595 -10.9132 -11.2621 -12.7821
-14.7428 -15.7552 -13.9197 -8.3760 -1.7161 2.9915
3.8276 0.3283 -5.2265 -10.4657 -14.0959 -15.5630
-14.6842 -11.7286 -7.8748 -3.3565 1.3223 5.6846
9.5756 12.0755 13.2800 13.1984 11.4009 8.1512
3.9207 -0.4231 -3.1012 -3.1429 -1.2072 1.9730
5.6802 9.7771 14.6591 19.3695 22.4429 23.9276
24.4408 24.2209 24.2599 24.4975 23.1390 19.6870
15.5093 12.5120 11.1294 10.4984 9.5583 7.2747
3.4895 -0.9405 -4.7841 -7.7165 -9.9900 -11.2492
-11.4988 -10.9197 -8.7344 -5.5440 -3.2167 -0.8560
2.5274 5.7855 9.6124 14.5241 19.6585 24.8839
29.5265 32.8672 34.8177 35.8979 36.9474 38.0861
38.5983 36.3991 30.7682 24.1046 18.2631 13.7801
10.2167 7.5164 5.9519 5.2726 6.2841 8.8082
12.2287 15.8598 17.6786 16.4481 12.2816 6.1812
-1.4930 -9.8019 -16.8544 -21.9387 -23.8661 -21.8951
-16.9481 -11.0880 -6.7758 -4.6869 -4.4818 -5.9591
-8.8775 -13.1109 -18.0522 -22.4832 -25.3246 -26.6794
-26.9383 -25.6280 -22.9536 -20.1363 -18.6859 -19.3021
-21.6841 -25.1983 -28.7496 -31.7098 -33.5870 -33.7540
-32.0540 -28.2391 -22.4802 -16.3603 -12.0304 -10.1968
-10.4788 -12.1222 -13.6357 -14.3326 -14.2398 -13.7740
-13.0928 -11.6888 -9.4422 -6.4170 -2.8314 0.8452
3.7247 6.3648 9.1245 11.2171 13.0842 14.6181
15.9293 18.3494 22.7359 29.2567 37.5109 46.5716
54.7812 60.2145 62.1957 61.0097 57.5745 53.4970
49.2507 44.1794 38.3824 32.3535 25.9005 19.0039
11.8085 4.7375 -1.6497 -7.6907 -13.9757 -21.0514
-27.9712 -32.2036 -32.1841 -27.9526 -20.4816 -12.0724
-5.6602 -1.8425 0.0181 0.6964 1.5028 2.1283
2.0327 0.9832 -1.7116 -6.1769 -11.6175 -16.8224
-21.5986 -25.5953 -28.5063 -30.9728 -33.3400 -36.4450
-40.8175 -45.4796 -49.3816 -51.5549 -50.9805 -47.4542
-41.7788 -35.4705 -29.8832 -25.4272 -22.1403 -19.0873
-15.2780 -11.0409 -6.9013 -3.2034 -0.2710 0.3340
-1.8151 -6.6061 -14.5764 -22.7851 -28.5922 -32.5852
-35.0332 -35.2744 -33.6431 -31.1236 -28.5439 -25.9502
-22.7692 -19.6624 -16.6910 -13.4849 -10.4133 -6.9929
-3.3701 -0.0647 2.2385 2.2590 0.4838 -1.4120
-2.0959 -1.9632 -1.7971 -1.5660 -1.6050 -1.2904
-0.2380 1.3033 3.8459 7.6933 12.2319 16.9673
21.9050 26.3565 29.7862 31.8751 31.5549 28.0686
21.8596 15.0707 9.3981 4.7500 1.3035 -0.7018
-1.1054 -0.3899 0.1409 -0.3185 -2.3887 -5.9085
-9.5971 -11.6228 -10.5278 -3.8391 7.8792 17.4168
22.7294 27.0194 30.2682 32.7319 35.2950 37.4414
37.3866 33.7017 26.6260 17.3752 7.5194 -0.8889
-6.1457 -8.9398 -10.3865 -10.2371 -8.5055 -6.5206
-4.2239 -0.6363 3.9840 10.4491 18.6523 26.8007
34.5687 41.5896 47.8692 54.3380 60.4161 66.4284
73.6981 81.4874 87.9645 91.8045 91.4537 85.3515
74.5027 61.9465 50.2514 40.9570 34.1114 27.9711
21.5794 16.2557 12.6710 10.9932 11.0155 10.9617
9.4937 6.3637 2.1962 -3.5283 -10.8184 -19.8242
-30.7379 -40.3479 -48.7505 -56.4925 -61.0534 -62.7933
-62.5919 -59.4693 -52.1523 -39.8429 -23.8913 -8.7535
1.5729 6.7259 7.8348 5.7599 2.7273 0.2135
-3.4417 -8.5056 -12.6758 -15.1423 -16.9676 -18.8606
-21.2844 -24.2817 -26.6740 -28.2552 -28.9994 -28.2654
-25.9770 -20.3211 -10.6193 -1.0075 5.0596 6.3847
2.4919 -4.1031 -12.0677 -21.0504 -28.3432 -31.4184
-26.6385 -13.0949 4.7730 22.8246 38.6825 51.4800
61.0501 67.7982 72.6728 76.1963 78.8391 80.3786
80.7331 80.4204 80.1606 80.5170 81.1137 81.5276
80.7880 79.1910 76.6586 72.6062 68.9621 63.6264
53.4429 37.8820 21.7596 9.8075 -1.2927 -11.4437
-20.8689 -30.8603 -39.3019 -45.5814 -48.4831 -44.3583
-32.0823 -15.5043 -0.5270 8.6942 12.4942 10.1325
3.4679 -4.1441 -11.3840 -16.5138 -19.1408 -17.7099
-13.7308 -8.1537 -1.4631 2.8101 4.5575 4.1520
2.2812 1.3422 2.2506 5.2099 9.8637 14.6139
18.2357 19.5405 17.6085 11.4246 0.7735 -10.5857
-19.4440 -25.1602 -28.1204 -28.6929 -26.3674 -21.8204
-16.4939 -12.4675 -10.6069 -9.7624 -8.9375 -6.8477
-2.9651 1.6098 5.1871 6.3879 5.0061 1.9253
-1.1471 -3.3928 -5.0974 -5.3136 -3.7092 -2.2560
-2.7274 -5.6569 -11.6348 -19.7944 -27.4110 -33.1783
-37.4033 -40.4321 -41.4408 -38.9668 -33.3081 -25.6135
-16.6874 -7.8449 -0.7385 3.6350 6.2463 8.2395
10.1391 12.3866 14.7798 17.3262 19.7185 22.0254
24.0409 24.8344 23.9287 21.0149 16.1051 10.0195
5.1923 2.5383 0.8801 -0.7958 -3.8218 -8.6667
-14.7615 -21.2842 -27.4012 -32.2591 -35.4142 -37.5865
-39.6094 -41.0366 -41.4069 -41.2138 -40.8417 -40.6032
-40.5716 -41.2444 -42.0944 -42.3644 -41.7046 -39.5118
-37.0824 -34.8989 -34.2512 -34.7597 -34.2827 -33.0448
-30.2043 -25.8327 -20.7753 -14.6201 -5.9733 5.1455
15.4626 19.9149 17.5004 12.9311 9.1683 7.1620
6.8113 6.2796 3.9142 -0.5864 -5.4192 -7.9256
-6.3091 -2.1676 1.0664 3.4383 6.9441 12.3105
18.6578 24.5745 29.1234 31.4563 31.3477 28.7801
24.1319 18.8760 14.5415 11.6676 10.2237 10.8111
14.2093 20.3060 28.2262 36.2410 41.8320 43.9524
43.3557 41.2845 38.6389 35.9080 33.1900 29.1636
23.1606 15.6989 7.5115 0.0879 -5.1848 -7.7543
-8.1728 -7.7487 -7.6485 -8.0874 -8.0168 -6.2834
-3.5765 -1.9581 -2.5028 -5.0612 -8.7201 -12.5693
-16.4398 -20.0384 -23.0914 -25.9950 -28.7844 -30.9790
-32.9416 -34.9525 -37.2631 -39.4058 -42.0013 -46.4786
-51.1936 -55.7851 -59.5740 -61.1858 -60.8592 -59.1480
-57.0415 -53.9050 -48.6240 -40.8476 -30.8386 -20.0093
-10.8708 -4.3379 -0.7903 0.0300 -0.6362 -1.8203
-2.1673 -3.2939 -4.5772 -3.8488 -2.1107 0.0246
1.8879 3.6585 6.0202 9.3451 13.1469 16.4792
19.4395 21.4169 22.1668 21.6722 19.5035 16.0580
11.6382 7.1153 3.6633 2.3280 3.0880 5.0377
7.5460 9.4613 10.1684 8.9212 5.7727 1.9523
-1.4329 -3.8270 -5.3025 -5.3470 -3.6479 -0.2821
4.8486 10.9082 16.5650 21.0842 23.2825 23.5118
22.5319 20.1387 16.5373 12.7753 9.9933 7.8934
7.9472 8.9225 10.4611 14.8012 20.2232 26.5909
33.2602 39.6668 45.7821 50.5073 54.1894 56.3887
57.6600 58.6957 59.6246 61.0546 62.7416 65.1191
66.6150 65.8104 62.4512 54.7046 44.1881 33.5806
24.7659 17.9603 11.6594 6.2513 1.9771 -0.9886
-1.4006 0.9471 4.0493 5.7790 4.9439 1.3907
-3.9088 -9.2641 -13.6988 -16.9373 -18.5176 -18.6327
-18.2903 -17.9692 -16.8194 -14.4967 -10.9732 -6.3863
-1.7715 1.9774 4.7307 6.3045 6.3676 5.1678
2.7922 -1.2397 -6.5783 -12.2759 -17.7184 -21.8719
-24.5927 -26.4764 -27.9333 -29.5331 -31.2610 -32.6185
-33.1558 -33.1094 -33.0055 -33.7209 -35.7578 -38.8209
-42.6181 -46.2335 -49.5305 -52.2373 -53.1458 -52.7987
-51.9988 -50.7238 -49.7652 -49.6213 -49.7744 -49.6204
-49.1768 -48.4604 -45.9270 -40.5745 -32.5254 -22.7558
-13.0716 -4.1753 2.2667 5.7038 6.8239 4.8381
1.0409 -2.0195 -2.4844 0.5148 6.1456 13.0089
19.4099 24.9898 29.8996 32.1165 30.1883 24.2725
15.9645 8.1205 2.3430 -0.6079 -0.6376 1.4522
4.4551 7.2835 10.4924 14.8084 19.7266 24.5780
28.8039 32.0435 34.0729 34.4618 32.7961 29.0917
23.3569 15.8701 7.7449 -0.1232 -7.0439 -12.4558
-15.5774 -15.6294 -12.3267 -5.3466 4.5213 15.5826
24.3871 27.9802 26.9112 22.3521 15.6662 8.4170
1.7051 -4.2088 -9.9018 -15.0742 -18.4130 -18.7285
-16.0588 -11.0125 -4.2551 2.6944 8.1425 11.2289
12.6580 12.3879 10.3539 8.2354 6.4101 5.3958
5.3810 5.5035 5.5805 4.3612 0.3951 -6.6147
-14.8800 -21.2532 -25.0012 -26.9536 -27.9716 -29.4368
-31.8337 -34.5879 -36.9533 -38.8583 -40.4294 -42.2797
-45.3011 -49.0993 -53.4801 -57.8926 -61.6963 -64.3753
-65.3802 -65.1278 -63.3628 -59.7809 -54.3783 -47.5930
-40.3781 -33.3460 -27.3802 -22.6615 -18.9988 -16.4645
-14.3404 -11.5908 -7.5570 -3.0202 0.9441 3.9256
5.4187 5.6767 4.8536 3.0200 1.0769 -0.2250
-0.7029 -0.2510 0.8514 2.4745 5.1971 9.1929
14.2011 19.6232 24.5943 28.8499 33.0295 37.3983
41.5760 45.2740 47.5735 47.7535 46.1946 43.7522
41.4091 39.5940 37.3883 33.6328 29.1406 25.1031
21.9053 19.4388 16.9268 14.1346 10.7420 6.8010
3.2701 0.4213 -1.3418 -1.5608 -1.0068 0.6821
3.6729 7.0981 10.5714 12.5851 12.9257 12.1685
11.0596 10.9891 12.5499 16.0149 20.3003 24.6589
28.5972 31.8052 34.3218 35.6822 36.4506 36.2381
33.6528 29.2534 24.9801 21.1978 17.4117 13.6860
10.0252 6.6660 3.5620 0.6213 -1.3460 -2.2702
-2.8771 -4.1679 -6.9638 -10.3666 -14.7920 -20.1129
-25.0191 -30.0356 -35.0122 -40.2691 -46.2851 -51.7721
-55.5934 -56.7635 -54.3480 -48.6541 -41.0095 -33.2889
-26.5908 -20.5090 -14.2768 -7.0498 1.3816 10.4478
19.2143 26.3911 31.7251 35.5102 37.6863 38.4185
37.3792 34.4830 30.8937 28.4504 28.2695 29.9435
32.6476 35.3517 36.7817 36.0106 33.3668 29.6726
25.5330 21.4361 17.2111 12.4980 6.2371 -1.8352
-10.4476 -18.2861 -23.9856 -26.7602 -26.5421 -24.2602
-21.0346 -18.0354 -16.1572 -15.0112 -14.2094 -13.7222
-14.2716 -15.1429 -14.8571 -12.7079 -7.2264 1.4064
11.6520 21.4467 29.3455 34.6460 36.0676 33.7041
27.5768 18.5682 9.1903 2.0023 -0.9143 -0.3556
2.3874 6.4918 10.5210 13.6028 15.5413 16.8795
17.6506 18.2278 19.1094 20.0365 21.0943 21.6335
20.9505 19.0956 16.3219 13.3552 10.3050 7.1518
3.7694 -0.1864 -3.9614 -6.9420 -8.7366 -9.1013
-8.6178 -7.9348 -7.3344 -7.2323 -7.6517 -7.8837
-7.5728 -6.7683 -5.4580 -3.3079 -0.5583 2.2163
4.3636 5.0466 4.4741 3.7076 3.1685 1.5538
-1.1883 -3.2558 -3.9369 -2.6507 0.5341 3.9842
6.6902 9.0138 11.5008 14.0545 16.2668 17.1669
15.5653 11.1399 4.1839 -4.5881 -13.9039 -22.2082
-28.4004 -32.3619 -34.5751 -35.7220 -36.2509 -36.6286
-37.4535 -38.3249 -38.1012 -36.4578 -34.0729 -31.6240
-29.6131 -28.3065 -28.1330 -28.9273 -29.6706 -29.7346
-28.8512 -27.4731 -25.5560 -22.5781 -18.2167 -12.1404
-4.5534 4.3912 13.6412 21.8499 27.9540 31.5276
33.6731 33.9970 32.0186 28.3058 22.7706 15.9501
8.6201 2.0483 -2.7863 -6.1047 -8.1453 -8.8728
-8.4821 -7.6478 -6.9138 -6.9658 -7.8993 -9.3367
-11.1035 -12.5103 -12.8787 -11.5377 -8.1794 -3.7252
0.6019 4.1727 6.9714 9.7266 13.4189 18.0977
23.1644 28.1429 32.2742 35.0971 36.8908 37.9506
38.0898 36.7071 32.9239 26.0115 17.8269 11.3377
7.5080 6.5402 7.7994 10.1416 13.3310 17.2637
21.0740 23.7521 24.8192 24.4406 23.2102 21.5696
20.2445 19.6951 19.4863 19.4158 19.0744 17.9840
16.6079 15.1167 13.6134 12.1982 10.7339 9.4738
8.6414 8.3853 8.5551 9.1398 9.9388 11.0792
12.7737 14.3225 15.3442 15.0055 13.0679 10.4771
8.1405 6.9369 7.1365 9.0379 12.6059 17.1381
21.8763 25.8990 28.8267 30.4488 30.7337 30.2363
28.9530 27.5128 26.8669 26.6498 26.4577 26.0717
25.3646 24.0367 22.1938 20.5671 19.3116 18.0134
16.3672 14.2134 11.2161 7.9757 5.1334 2.7987
1.1859 -0.0390 -1.1349 -2.2624 -3.5494 -5.0704
-7.2306 -10.2688 -14.2033 -18.8848 -23.8912 -28.7230
-32.9220 -36.0743 -38.0861 -39.1616 -39.7601 -40.3076
-40.3642 -39.6506 -38.1241 -36.2589 -35.2798 -35.7531
-37.7667 -40.6620 -43.8346 -46.8227 -49.2465 -50.8268
-50.9984 -50.3906 -49.2408 -47.2875 -44.8627 -41.7661
-37.9355 -33.9072 -30.5368 -28.2113 -26.7340 -26.2078
-26.5317 -27.2722 -28.6409 -31.2596 -35.2878 -40.2775
-45.2773 -49.1729 -51.3443 -51.4918 -49.4391 -45.3116
-38.8353 -30.3974 -22.1134 -15.5509 -10.8953 -8.1569
-6.9162 -6.3102 -5.5845 -4.2427 -2.1659 0.8583
5.4054 11.7508 19.2403 27.0510 34.2705 40.3775
45.4015 49.2571 52.7639 56.3783 59.8025 62.6588
64.1918 63.9737 62.1763 59.2931 56.0063 52.6601
48.7349 44.7641 41.7214 40.0353 40.1903 41.3929
43.9532 47.2781 49.7669 51.5987 51.9541 51.5885
50.6541 48.6283 46.2806 43.4884 40.7593 38.6204
37.4057 36.7663 36.2096 35.3076 34.4103 33.8934
33.7617 34.1050 33.9296 32.4755 29.3233 24.7930
19.3830 14.2115 9.7759 5.9091 2.8218 -0.3602
-3.7704 -6.8225 -9.2370 -11.2460 -13.1641 -15.2492
-18.1844 -22.0614 -26.3476 -30.7572 -34.7669 -37.9962
-40.4943 -41.9010 -41.8175 -39.4642 -33.9382 -26.0551
-18.2584 -11.7423 -6.1457 -1.0967 3.4485 7.3079
10.4611 11.7064 10.0937 6.4023 1.3616 -3.8192
-7.7714 -9.9678 -9.6672 -6.5056 -1.1958 5.3092
12.2569 18.9930 24.9050 29.8065 33.9081 37.2525
39.5093 40.2805 39.6643 38.8672 39.0370 40.1710
41.7532 43.1470 44.0694 44.1001 43.0023 41.0647
38.9193 37.6128 37.4225 38.2995 39.7183 40.3809
38.7598 33.5818 24.8061 13.5833 1.6581 -9.6184
-19.4056 -27.0594 -32.2151 -35.3934 -37.3374 -38.4194
-38.8333 -38.2254 -36.6822 -34.7576 -32.9267 -32.1231
-32.8172 -34.4764 -36.7573 -39.0726 -40.5591 -40.8700
-39.9299 -37.7669 -34.2295 -29.7149 -25.0538 -20.0743
-14.6522 -9.0947 -3.8981 0.1571 3.4059 6.3105
8.6137 9.7857 9.3041 6.8274 2.2711 -2.9746
-7.6543 -11.1490 -12.3451 -11.2538 -8.5534 -4.8286
-0.4885 4.4316 9.7005 14.7236 18.6127 20.7526
21.4727 21.6490 20.6329 17.4797 13.0023 8.2790
4.2081 1.0085 -1.5592 -3.7983 -6.3307 -9.3558
-12.7058 -15.7847 -17.9803 -18.6567 -16.9326 -12.6908
-7.3133 -2.3292 1.5135 3.7916 5.1929 6.7843
8.8277 11.1690 13.3980 15.2604 16.7257 17.8810
18.7060 18.7487 17.6824 15.1315 11.4642 7.3339
2.9539 -0.8711 -3.7756 -5.6872 -6.7497 -7.1097
-6.8536 -6.4406 -6.2179 -7.1217 -9.2922 -12.6106
-16.8848 -20.9362 -24.1748 -26.3805 -28.1371 -29.7453
-30.8792 -31.6327 -31.9454 -32.0865 -32.2182 -32.0178
-31.3255 -30.2583 -28.9035 -27.1626 -25.3967 -24.1077
-22.4281 -20.3235 -18.1224 -14.3678 -8.7768 -2.1800
4.3037 9.2024 11.6550 12.0921 11.8917 11.4862
11.1020 11.5048 12.6750 14.4604 16.5140 18.4098
20.1590 21.3088 21.7644 21.3246 19.9577 18.1166
15.9926 14.0550 12.5387 11.6395 11.3723 11.2767
11.3816 11.5440 11.2211 10.6755 10.0204 8.7815
7.0166 5.2906 4.1956 4.0453 4.8294 6.3114
7.8175 8.6462 8.2806 6.4330 3.5740 -0.0061
-4.1624 -8.4792 -13.0717 -17.9221 -22.7512 -27.8253
-33.3754 -39.3208 -45.6588 -52.5080 -59.5410 -65.8187
-70.5976 -73.1987 -73.1968 -70.7618 -66.4051 -61.0878
-55.7734 -50.8125 -46.3156 -42.4896 -38.7870 -34.8989
-30.6896 -25.7000 -20.4356 -15.0924 -10.6456 -8.7006
-8.8788 -11.0019 -13.7004 -14.9689 -15.1944 -13.2995
-9.5394 -5.4387 -1.0912 2.7756 6.5914 10.3877
13.4064 15.0136 14.7028 12.6733 9.9387 8.1319
7.8424 9.2501 12.0916 15.3923 19.1747 23.5362
28.0191 33.3958 39.7709 45.4750 48.8751 49.3280
48.2014 47.2364 46.7928 46.6991 46.9896 47.4944
47.6512 47.5826 47.7608 48.3454 49.6668 51.1813
52.2642 52.4313 50.6644 47.2858 42.6747 37.7334
33.8025 30.4925 27.2085 22.4536 15.5413 7.3576
-1.2158 -8.3796 -13.8490 -18.2197 -21.7868 -25.2517
-28.6675 -32.0583 -35.3071 -38.1429 -40.6057 -42.7038
-44.1069 -44.7249 -44.9680 -45.0422 -44.7963 -44.3527
-43.5017 -41.9084 -39.6154 -36.2469 -32.2437 -27.7031
-22.7942 -18.3855 -14.9158 -13.1072 -12.7509 -13.9544
-16.8264 -20.2348 -23.6033 -26.4001 -28.1169 -28.9390
-28.8703 -27.9581 -26.2896 -23.9261 -21.5412 -19.5563
-18.0901 -16.8299 -15.5781 -14.5360 -13.6628 -12.8953
-11.9089 -10.6775 -9.4553 -8.6100 -8.2016 -7.9706
-8.0559 -8.3955 -9.0414 -10.0770 -10.9808 -11.2480
-10.6523 -9.1118 -7.0833 -5.2172 -3.9431 -3.4057
-3.5644 -4.6668 -6.5728 -8.9029 -10.6716 -10.6354
-8.9020 -5.7877 -1.6982 2.8656 7.7142 12.7159
17.8522 22.6859 27.0214 31.0135 34.6297 37.6725
40.1929 42.5100 44.7000 46.8789 48.7051 49.7565
49.9421 49.0188 46.8771 43.4548 38.9022 33.7001
27.9152 20.7105 11.8476 2.4038 -6.5631 -14.2447
-19.6362 -22.1518 -21.9532 -19.7493 -17.1232 -15.5336
-15.7386 -17.8256 -21.1718 -25.0720 -28.9787 -32.4326
-34.9538 -36.4627 -36.4534 -34.7496 -32.2218 -28.6436
-24.2005 -20.0720 -16.1829 -12.6325 -10.2857 -9.2408
-9.0274 -9.2111 -9.3762 -8.8259 -7.1157 -4.7215
-1.9748 0.7479 3.0576 5.4239 7.9971 10.8998
13.6503 16.0472 18.5110 20.7260 22.8650 24.2291
24.7005 24.6857 23.8914 22.9208 21.6550 19.9884
18.1186 15.7718 13.2580 10.6263 8.3408 7.3887
7.7385 9.2901 11.7668 14.9266 18.4361 21.8854
25.4599 28.6382 31.1613 33.0692 34.4760 35.9041
37.8362 40.5894 43.6935 46.4273 47.8990 47.6012
45.3602 41.2818 36.2755 30.8580 25.4740 20.4399
15.7296 11.4712 7.3640 3.2615 -1.2957 -6.7576
-13.0046 -20.1267 -27.3267 -33.8299 -39.0645 -42.3439
-43.6421 -42.9674 -40.7793 -37.6409 -34.0673 -30.8157
-28.4559 -27.4166 -27.6810 -28.8577 -30.6199 -32.7115
-35.1752 -38.0138 -40.9053 -43.8377 -46.4359 -48.2826
-49.0657 -47.7341 -43.7754 -37.3112 -29.1619 -20.9670
-13.7104 -7.6721 -2.6695 1.7124 5.3324 7.8898
9.7059 11.2407 12.8600 15.3136 19.2630 24.9133
31.9612 39.6652 47.0619 53.2292 58.0648 61.9483
65.2064 68.0376 70.0327 70.7232 70.1571 68.8060
67.3204 65.5498 63.1891 60.2726 56.7074 53.4048
50.4307 47.7767 45.7714 43.0831 39.9494 36.6338
32.5369 28.3676 24.0888 19.7274 15.8346 11.9214
8.5836 5.9046 3.5939 2.2911 0.9187 0.0028
-0.0018 -0.0519 0.1263 0.1931 0.2284 0.6497
1.3920 2.2875 2.9789 3.4457 3.5246 2.6189
0.5941 -2.0413 -5.1889 -8.0888 -10.0505 -10.8949
-10.1330 -7.5533 -3.5593 1.2540 7.2208 12.3432
14.9739 15.7525 14.4636 11.1619 6.3393 0.6992
-5.2546 -10.5374 -14.1824 -15.6468 -14.5230 -11.4412
-7.3415 -2.9550 0.6873 2.4940 2.6035 1.1596
-1.7513 -5.0948 -8.3714 -11.2564 -13.2775 -14.6898
-15.8145 -16.1949 -16.3397 -16.3963 -16.1105 -15.6325
-14.6879 -14.8512 -14.7704 -14.3992 -15.2826 -14.8975
-14.8678 -15.2353 -15.0237 -16.5177 -18.6037 -22.3257
-28.2693 -34.5655 -41.8648 -49.3599 -55.8955 -61.4911
-66.9865 -72.3371 -76.7338 -78.2519 -73.9953 -64.7983
-51.9163 -40.5516 -33.2977 -28.2914 -27.3337 -28.4398
-31.2886 -35.3429 -38.5610 -40.7371 -40.7111 -38.3281
-34.1504 -29.4456 -23.0436 -16.7288 -11.0571 -5.3919
-1.9510 1.0241 1.7841 1.2997 1.7071 1.3044
1.3907 1.4325 1.8287 2.4143 2.7335 2.6983
1.6534 0.9853 -0.6925 -3.1896 -5.6904 -8.2061
-9.4041 -10.2884 -10.5984 -9.9896 -9.0375 -7.9629
-7.6084 -7.8404 -8.8286 -10.1751 -10.5825 -9.2462
-5.6373 0.4974 8.7795 18.2920 28.6044 38.7192
47.4142 54.0037 58.1146 59.8499 59.2402 56.2689
51.1382 45.6614 42.4906 42.1742 44.3039 48.5762
53.2986 57.1515 59.8797 61.9036 64.2532 66.7559
70.1486 73.8261 76.8791 80.2448 82.2307 82.0006
79.7772 76.1248 72.1559 68.4543 65.2890 62.8077
60.3245 56.3231 50.7980 43.4987 34.2590 23.1133
13.8152 8.4173 4.2758 2.0023 1.4632 2.4691
4.2183 5.7550 6.6663 6.1383 6.2320 6.7647
7.3577 7.4895 5.7514 2.0749 -4.0961 -11.4845
-19.9400 -28.6396 -36.4354 -44.0688 -50.1367 -54.3274
-57.2681 -58.8047 -58.8975 -57.6234 -55.3842 -52.3405
-49.3747 -47.0483 -44.3229 -40.8495 -36.9669 -32.8236
-29.0022 -26.0086 -24.2733 -23.8074 -24.3809 -25.6429
-27.1100 -28.3637 -29.5357 -30.7541 -31.6820 -32.3613
-32.2601 -30.8821 -28.1409 -24.8113 -21.7407 -19.5590
-19.3762 -20.7032 -22.5767 -24.3621 -25.1379 -24.6999
-23.3868 -21.8695 -20.9833 -21.4213 -22.8763 -23.8423
-23.4080 -21.3600 -18.5084 -16.1374 -14.8605 -14.7473
-15.4395 -16.7377 -18.5760 -20.8625 -22.9857 -25.0058
-26.5295 -26.3420 -24.3701 -20.8281 -16.1233 -10.5611
-4.9683 0.2821 5.4249 10.0768 14.2675 17.9932
20.8774 22.7287 23.5267 23.5806 23.6344 23.5862
23.6595 24.1198 24.6125 25.4440 26.3460 27.0642
28.0887 29.9233 32.7295 35.5236 36.8032 36.0989
33.4097 30.1127 27.4235 24.7835 22.2566 19.3475
16.0087 12.7145 9.4778 7.0168 5.3985 4.3824
3.2893 1.6848 0.3152 0.1741 2.1284 6.0649
11.1037 16.6102 22.2049 27.3338 31.9866 36.2181
39.9568 43.0247 45.0384 46.1557 46.3858 46.2884
46.3487 46.1307 45.9228 46.0834 46.3228 46.3191
45.5851 43.4786 39.8076 34.8737 28.5357 20.9107
12.9061 5.7247 0.4669 -2.6455 -3.4463 -3.0380
-2.6631 -1.8585 -0.9370 -0.1854 0.7834 1.9425
3.3056 4.4916 4.3097 3.0709 1.5352 -0.2846
-1.7387 -2.6313 -2.3594 -1.0306 0.6249 2.4317
4.0454 5.6768 6.9574 7.2664 6.0693 3.4915
-0.0347 -4.5428 -9.4387 -14.2399 -17.9619 -19.4170
-17.8042 -12.8590 -6.1555 -0.8382 0.8665 -0.1886
-2.5846 -6.0023 -10.1586 -15.2336 -21.6727 -28.4755
-33.7649 -36.4615 -36.2973 -33.9987 -30.2952 -25.8122
-21.8962 -19.5614 -19.1661 -20.3697 -22.3657 -24.8248
-27.7478 -30.7989 -33.1643 -34.0226 -32.1704 -26.5470
-17.7935 -8.4285 -0.7366 5.4195 10.6949 15.0322
18.0314 18.8425 17.0209 12.8200 7.1762 1.3950
-3.6299 -7.7509 -11.3533 -14.6939 -17.8100 -21.0021
-24.5052 -28.1316 -31.4611 -34.1838 -36.2058 -37.7508
-39.3738 -41.1685 -42.5177 -42.6114 -40.1532 -33.9600
-25.7726 -19.0402 -15.1753 -13.7313 -13.9299 -14.8319
-15.1167 -14.0533 -10.8787 -5.6200 0.0703 5.4998
10.7901 16.4748 22.7080 28.5495 32.7160 34.0792
32.5165 29.0618 25.2859 22.1541 20.1265 19.3823
19.9855 21.5148 23.0756 24.5000 25.9458 27.6644
29.2373 30.2432 30.5764 29.7849 28.2909 26.1992
23.8979 21.9260 20.1685 19.3547 19.4308 19.9570
20.8450 21.5781 21.8751 21.8770 21.5568 20.9147
19.2806 15.4713 10.1513 3.9127 -2.2666 -6.9268
-9.9733 -11.3476 -11.6055 -10.9327 -9.6874 -8.2723
-6.6038 -5.2758 -4.4666 -4.2718 -4.8870 -6.4747
-8.2267 -9.2725 -9.8701 -10.3442 -10.8546 -11.6684
-13.3573 -15.2717 -16.8603 -17.7771 -17.3725 -16.0845
-14.3102 -12.6491 -11.4994 -10.7746 -10.5046 -10.5324
-10.8590 -11.7341 -12.8727 -13.7041 -13.8266 -12.8532
-10.9536 -8.7070 -6.6237 -4.5525 -1.9570 1.0144
3.7695 6.3817 9.5823 13.7201 18.5278 23.2372
27.7212 31.8859 35.0539 37.2449 38.5542 38.8568
37.8379 35.3268 31.8201 27.8206 23.5102 18.9688
14.5731 10.9550 8.4532 7.1819 7.0251 7.6422
8.6194 9.0982 8.8532 8.0246 6.2114 2.9598
-1.8841 -7.8629 -14.7614 -22.0347 -29.1670 -36.1016
-41.9097 -45.8851 -48.0417 -48.8286 -48.3581 -47.0357
-46.0326 -45.1120 -43.2932 -40.4935 -37.3088 -34.1611
-31.4579 -29.8071 -29.2113 -28.9199 -28.1144 -26.6288
-24.9863 -22.8594 -19.9502 -17.2127 -14.3935 -11.3888
-9.1440 -7.7409 -7.0004 -6.9874 -7.1117 -6.1578
-2.7540 2.9196 8.7824 14.1405 18.6392 22.0412
24.5420 26.0630 27.3306 28.4395 29.0668 28.8339
27.0179 23.0119 16.6563 8.7548 0.4013 -7.1634
-12.7822 -16.0950 -17.2215 -16.8912 -15.5011 -13.6433
-12.2690 -11.1415 -10.4158 -10.3555 -10.7248 -11.0969
-10.9326 -10.3387 -9.1834 -7.1910 -4.3960 -1.1834
1.5216 3.0481 3.2170 1.9411 -0.4252 -3.3297
-6.4699 -9.4198 -11.6135 -12.4709 -11.7360 -9.3279
-5.3581 -0.3814 5.0759 10.1101 14.2674 17.8827
21.0100 23.5944 25.5431 27.1290 28.4059 29.4053
30.4372 31.3086 32.1577 32.8889 33.3353 33.6239
33.5283 33.1071 31.9035 29.5808 26.0722 21.4399
16.8864 13.1959 10.4520 7.8528 4.7200 1.2355
-2.4309 -5.7585 -8.6862 -11.0534 -12.3971 -13.0429
-13.8493 -14.6492 -14.9285 -14.6232 -13.1765 -10.0158
-5.0958 0.4562 5.5507 9.4769 11.8266 13.1935
14.1372 15.1403 16.5221 17.7730 18.6722 19.3311
19.3793 18.4421 16.3384 13.2511 9.4641 5.3904
0.8573 -4.4329 -10.5129 -17.1172 -23.3716 -29.2577
-34.7744 -39.9570 -44.8687 -49.2654 -53.1062 -56.0404
-58.0178 -58.9810 -59.1573 -58.6998 -57.4823 -55.5633
-53.1719 -51.1879 -49.6642 -48.7780 -48.3660 -47.9428
-47.3804 -46.2919 -45.6813 -45.2220 -44.6327 -44.4740
-43.8170 -42.6589 -41.0414 -38.4700 -35.0375 -30.6120
-25.6307 -20.6893 -15.6913 -11.0886 -6.9889 -3.5990
-1.1715 0.7067 2.1265 3.2586 3.9305 3.9788
3.6679 3.0870 2.4932 2.5962 3.8888 6.2431
9.3416 13.0089 16.9239 20.5681 23.6415 26.1321
28.1236 29.7466 31.3622 32.9249 34.3094 35.4183
35.8888 35.9445 35.9204 36.1329 37.0841 39.2787
42.7762 46.8481 50.8217 54.5409 58.1600 61.9656
65.6440 68.4094 69.5823 68.9420 66.5145 63.1757
59.2579 54.9865 50.9592 45.9658 41.9589 38.6647
35.5894 34.3590 32.7313 31.3700 30.0069 27.4504
23.8184 19.0858 13.9857 9.4100 5.2481 1.2848
-1.8424 -5.0068 -7.8760 -11.1990 -14.8347 -18.2645
-21.9707 -25.3104 -28.9165 -32.0326 -34.6726 -36.4051
-36.7094 -36.2000 -34.7069 -33.6787 -33.6341 -34.5658
-36.2788 -38.1384 -39.9989 -41.2071 -41.5978 -41.4781
-41.1653 -40.9250 -40.5055 -39.7334 -38.9781 -38.1624
-37.5564 -37.6714 -38.7423 -40.5240 -42.2629 -43.2252
-42.6777 -41.0046 -39.1737 -37.8634 -36.9531 -35.9063
-34.2128 -31.5430 -28.0966 -24.1833 -20.3054 -16.3838
-11.6846 -5.8783 0.9580 8.4893 16.0253 23.4211
30.4365 36.6873 42.1585 46.4801 49.7094 51.9866
53.5159 54.7538 56.1031 57.4449 58.3256 58.8712
58.8397 58.6922 58.6690 58.8917 59.1794 59.0337
59.1321 58.6310 58.5521 57.8887 56.5032 55.9520
54.2372 53.0875 51.8746 50.3472 49.2773 47.6942
46.1195 44.4473 42.8531 40.8543 39.6971 39.0921
39.2898 40.4228 41.0622 41.8946 41.9290 41.4390
40.4034 38.4046 35.9251 32.6615 28.5302 23.0349
16.6180 9.5702 2.6068 -3.2560 -8.0072 -11.3292
-13.4496 -14.9538 -15.8994 -16.5258 -17.1827 -17.9669
-18.9690 -19.8515 -20.4844 -20.8565 -20.8620 -20.7265
-20.2115 -19.5786 -19.2826 -19.0209 -18.7091 -18.7174
-19.0914 -19.4328 -20.1028 -21.2312 -22.6639 -24.6182
-26.7321 -28.6669 -30.0282 -30.7566 -30.8884 -29.9994
-28.1193 -25.0078 -20.7021 -16.0790 -11.7881 -8.3537
-5.6273 -3.3603 -1.8022 -0.9893 -1.1461 -2.1576
-3.9653 -6.4225 -8.7850 -10.5621 -11.4538 -11.6273
-11.4306 -11.0260 -10.6232 -10.3105 -10.2186 -10.4218
-10.8710 -11.5381 -12.1376 -12.3352 -12.0847 -11.8657
-12.0011 -12.4243 -13.0720 -13.4487 -13.4403 -13.1629
-13.0338 -13.6370 -14.9046 -16.7865 -18.8781 -20.6059
-21.5311 -21.4596 -20.4212 -18.4966 -15.6608 -12.0333
-8.4607 -5.4671 -3.3300 -2.0354 -1.3487 -1.0212
-0.5618 0.2669 1.7127 3.7932 6.6170 10.5636
15.4224 20.6199 25.3219 28.7136 30.4090 30.0592
27.5407 22.9947 17.0130 10.8338 5.6623 1.9514
-0.6219 -2.4091 -3.8363 -5.3006 -6.6730 -7.9406
-9.4198 -11.0845 -12.6778 -14.1913 -16.1140 -18.6185
-21.2985 -23.8763 -25.8612 -27.2494 -28.3286 -28.9355
-29.2046 -29.1062 -28.6005 -28.0196 -27.5435 -27.1686
-26.8382 -26.5672 -26.2935 -25.9705 -25.4685 -24.8570
-24.0403 -22.8266 -21.4661 -19.9628 -18.4540 -16.9274
-15.6970 -14.8126 -13.8568 -13.0587 -12.1122 -11.2018
-10.4465 -9.4823 -8.4439 -7.2329 -6.0869 -4.9983
-3.9813 -3.1656 -2.3119 -1.6762 -1.4182 -1.6205
-2.2802 -3.2342 -4.4470 -5.3833 -5.6561 -5.2682
-4.3393 -3.0661 -1.6445 -0.4103 0.5502 1.5116
3.1930 5.9482 9.5626 13.9045 18.8070 24.2012
29.7977 35.4954 41.4873 47.4801 53.1703 58.3252
62.5715 65.7433 67.9584 69.4682 70.2848 70.6096
70.3006 69.4432 68.1626 66.3188 64.2578 61.4962
59.1624 57.1357 54.8873 53.4313 51.5921 49.1163
45.9529 42.1743 37.9094 32.6628 26.7841 20.7877
13.9217 6.7143 0.6408 -4.9001 -9.2522 -12.9649
-16.5413 -19.6527 -22.8337 -25.7290 -28.5685 -31.0239
-33.0023 -34.5000 -35.7286 -37.3720 -39.3476 -41.9190
-45.1622 -48.8740 -53.0748 -57.4362 -61.1805 -63.9338
-65.5772 -66.1785 -65.8862 -65.1289 -64.1676 -62.8090
-61.6129 -60.3555 -59.5602 -59.2419 -59.0414 -59.7383
-60.2607 -60.7767 -60.7841 -59.4738 -57.2207 -53.7900
-49.7107 -45.0690 -39.5615 -33.4741 -27.4850 -21.5090
-16.4367 -12.6423 -9.4677 -6.6699 -3.8906 -1.2784
1.6502 4.6420 7.5827 10.7740 14.3244 18.5559
23.1419 28.0378 33.0182 37.6905 41.9359 45.7090
49.0358 52.0238 54.6732 57.0358 59.5246 61.9104
64.5124 67.3269 70.2787 73.3522 75.9904 78.3641
79.7746 81.1898 81.6937 81.9312 82.6903 82.2366
82.3535 81.3652 79.3887 76.4564 71.7730 65.4898
57.5279 50.2870 43.6948 38.5511 34.0209 29.7949
25.8456 21.1696 16.4760 10.7867 4.9164 -0.7497
-6.0159 -10.4069 -14.7006 -18.7205 -22.5641 -26.1711
-29.4783 -32.0209 -33.4165 -33.7181 -32.7512 -30.6363
-27.6084 -24.1898 -20.6802 -17.2495 -13.8838 -11.1528
-9.6337 -9.0825 -9.5362 -10.7862 -12.5586 -14.4247
-16.3604 -18.2822 -20.1112 -22.5359 -25.3551 -28.2419
-30.9256 -33.0330 -34.6151 -35.6303 -35.9560 -35.8409
-35.4558 -34.7811 -33.9534 -32.5122 -30.2823 -27.3138
-23.9193 -20.6770 -17.6518 -14.8930 -12.5480 -10.8702
-9.3744 -8.0214 -6.7445 -5.1020 -3.6692 -2.4703
-1.3428 0.0566 1.9719 4.0079 5.9956 7.4776
7.9174 6.8364 4.3003 1.0561 -2.1286 -4.3752
-5.1333 -4.4921 -3.0083 -1.2924 0.0011 0.4661
0.1450 -0.6502 -1.4789 -2.1359 -2.2890 -1.8463
-0.8673 0.6861 2.6562 4.9483 7.2728 9.2902
10.6775 11.1128 10.5152 9.0156 7.0353 5.0523
3.3245 2.1488 1.5391 1.1939 0.8033 -0.0885
-1.5881 -3.6463 -6.2167 -9.1258 -12.2141 -15.2698
-18.2430 -21.0055 -23.3421 -25.0310 -25.5961 -24.8407
-22.9625 -20.6036 -18.2596 -16.0770 -14.3863 -13.0787
-12.1879 -11.7090 -11.4576 -11.3870 -11.3592 -11.4148
-11.5438 -11.6895 -11.5382 -10.8617 -9.6720 -7.9210
-5.7653 -3.4463 -0.8888 1.9739 5.0548 8.1635
10.8518 12.9954 14.5701 15.6308 16.4029 16.9244
16.9022 16.0484 14.3169 11.5089 7.8351 3.8755
0.4217 -1.8583 -2.8494 -2.5199 -1.1883 0.9284
3.6149 5.9227 7.5597 8.6287 8.5359 6.9946
4.1884 0.4952 -3.5145 -7.2542 -10.5605 -13.3917
-15.4796 -16.8270 -17.3847 -17.3438 -16.7777 -15.6196
-14.1544 -12.2892 -10.0054 -7.2466 -3.7741 0.1474
4.1804 8.2096 12.1488 15.8588 19.2922 22.5448
25.6005 28.5357 31.2927 33.9030 36.6443 39.4356
42.2891 44.9338 47.2268 48.9908 49.9188 50.5471
50.7466 50.2464 49.0661 46.9327 43.7517 39.4116
34.4554 29.8314 25.9544 23.1668 21.4835 20.7690
20.8247 20.3904 19.4541 18.2042 16.1135 13.5885
10.4669 6.9917 3.3857 -0.4375 -3.8988 -6.7049
-8.6713 -9.3153 -8.3400 -5.8614 -2.4762 0.7263
3.2327 4.7601 5.1619 4.5801 3.1214 1.0836
-1.2790 -3.4736 -5.5271 -7.9881 -10.8592 -13.7154
-16.0557 -17.8402 -18.9277 -19.1783 -18.7616 -17.6397
-16.1141 -14.0252 -11.1550 -7.8635 -4.3586 -1.2249
1.2092 2.9649 3.9810 4.4153 4.2631 3.3111
1.7011 -0.4147 -2.6909 -4.6471 -6.3072 -7.3854
-7.8550 -7.9199 -7.8642 -8.0331 -8.1129 -8.0433
-7.7686 -7.2415 -6.5780 -5.8644 -5.4254 -5.2157
-5.3159 -5.8689 -6.6456 -7.4724 -8.1925 -8.5693
-8.4421 -8.0189 -7.2617 -6.3922 -6.0628 -6.2186
-6.8933 -8.0838 -9.3505 -10.5206 -11.5246 -12.4739
-13.4640 -14.4477 -15.4081 -16.3602 -17.2139 -17.5739
-17.4180 -16.9958 -16.4733 -16.2283 -16.5225 -17.5219
-19.3063 -21.6800 -24.4713 -27.1410 -29.2549 -30.5513
-30.6348 -29.4451 -27.0871 -24.0035 -20.5227 -17.2609
-14.6144 -12.7566 -11.9158 -11.5548 -11.5455 -11.5864
-11.2087 -10.4097 -9.3481 -8.2948 -7.3622 -6.5660
-5.7949 -5.0655 -4.4289 -4.0168 -4.0669 -4.7592
-5.9423 -7.2544 -8.5294 -9.6857 -10.8270 -11.9294
-12.8889 -13.7139 -14.2855 -14.3523 -13.5756 -12.2430
-10.9197 -9.6484 -8.7084 -8.1618 -7.8435 -8.0662
-8.7881 -9.7188 -10.2450 -9.8422 -8.4521 -5.9049
-2.4937 1.4660 5.7550 9.8213 13.2873 16.1807
18.6370 20.7138 22.4686 23.8550 25.0474 26.1034
27.0555 27.9186 28.6053 29.0850 29.1714 29.1083
29.0869 29.5305 30.6840 32.2467 33.9180 35.0278
35.4361 35.2079 34.2558 32.5576 29.9427 26.5603
23.2057 20.5267 18.4741 16.8836 15.3858 13.8000
11.8940 9.3263 6.3281 3.0626 -0.2307 -3.3681
-6.1650 -8.5201 -10.7843 -12.7729 -14.2289 -15.0872
-15.2932 -14.8246 -13.7045 -12.1344 -9.8488 -6.9035
-3.5814 0.0368 3.4248 6.3683 8.7550 10.5562
12.1384 13.4765 14.7849 16.0062 16.7652 17.3508
17.6942 17.5299 16.6493 14.8287 11.8128 7.5117
2.1927 -3.8168 -9.6564 -14.9634 -19.9419 -24.5882
-28.9811 -33.1059 -36.9838 -40.3839 -42.8708 -44.3072
-44.7777 -44.2590 -42.7649 -40.4237 -37.1851 -33.0584
-28.0845 -22.4843 -16.6604 -10.7354 -4.4308 2.3591
9.0386 15.2123 20.9787 26.3219 31.1668 35.2229
38.2722 39.9128 39.5250 37.3972 34.0602 30.2992
26.7684 23.2588 19.5600 15.6023 11.4562 7.0075
2.3408 -2.0948 -6.1277 -9.8386 -13.1802 -16.0856
-18.8305 -21.5280 -24.2349 -27.1153 -30.3965 -33.7112
-36.4431 -38.7203 -40.6207 -42.3133 -44.0059 -45.5704
-46.9744 -48.2104 -49.2182 -49.9819 -50.3762 -50.6500
-50.9673 -51.1937 -51.4832 -51.6558 -51.8006 -51.8284
-51.7161 -51.5741 -51.2929 -51.2558 -51.1648 -51.0238
-50.6396 -49.5659 -47.8028 -44.9038 -41.3330 -37.4411
-33.5205 -29.7771 -25.6987 -21.6574 -17.7247 -13.9052
-10.4931 -7.4920 -5.3391 -3.8544 -2.7882 -1.9725
-0.7652 0.9005 3.0645 5.6786 8.6249 11.9099
15.0381 17.7932 20.0612 21.8419 23.5494 25.0286
26.3788 27.8180 29.3111 30.8878 32.3261 33.6828
34.9875 36.3925 38.1027 40.1637 42.4243 44.6699
46.8525 48.6611 50.1357 51.0729 51.5026 51.7105
51.6409 51.9852 52.7730 53.9914 55.3138 56.8162
58.9839 61.0839 63.2934 65.2421 66.8800 68.4074
69.5924 70.4007 70.9408 71.4512 71.6572 72.0145
72.0860 71.8633 70.9576 68.7231 65.0938 59.2811
52.4068 45.1650 37.8917 31.2392 25.0320 19.1395
13.2915 7.5809 2.1607 -2.9394 -7.7898 -12.4333
-16.6694 -20.1363 -22.4961 -23.2700 -22.1202 -19.2584
-15.0064 -9.8488 -4.2012 1.4426 6.3664 9.8193
11.5482 12.3184 13.0969 14.4583 16.4812 18.9116
21.4551 23.7676 25.5568 26.7743 27.5296 27.9045
28.0066 27.9899 27.8563 27.5390 27.2133 26.9618
26.9062 27.0055 27.0871 27.2301 27.0835 26.2826
24.7719 22.7676 20.2519 17.0207 13.3952 9.4319
5.2348 1.2074 -2.2696 -4.9570 -6.8973 -8.2373
-9.4343 -10.5952 -11.7106 -12.9559 -14.1557 -15.1867
-15.7741 -15.9634 -15.9467 -15.8835 -16.1062 -16.5665
-17.4035 -18.5291 -19.6371 -20.6272 -21.6618 -22.8394
-24.0244 -25.3142 -26.6969 -27.9042 -28.7569 -29.4204
-29.6988 -29.5800 -29.3990 -29.2598 -29.4825 -30.1246
-30.9839 -31.9471 -32.6273 -32.7015 -32.0195 -30.5134
-28.7131 -26.9212 -25.2490 -23.8988 -22.8326 -22.0243
-21.4091 -20.8300 -20.2630 -19.6867 -18.7393 -17.2777
-15.1981 -12.7399 -10.2112 -7.7902 -5.9454 -4.9172
-4.7139 -5.1909 -6.0762 -7.0375 -8.1798 -9.5068
-10.9516 -12.2461 -13.0116 -13.1462 -12.4910 -11.4768
-10.2667 -9.0761 -8.2855 -7.6758 -7.3213 -7.1793
-7.1050 -7.1468 -7.1347 -6.9899 -6.7292 -6.4637
-6.3821 -6.6781 -7.5754 -9.1353 -11.2547 -13.6980
-16.0810 -17.8970 -19.0672 -19.6211 -19.4773 -18.8166
-17.4933 -15.5130 -12.8414 -9.6232 -6.4060 -3.3789
-1.0015 0.7013 1.9819 2.9173 3.6217 3.9836
4.0049 3.9753 3.7368 3.0742 2.6279 1.9347
0.9502 -0.0650 -1.0189 -1.6833 -2.6642 -2.7885
-1.9542 -0.8212 0.9188 2.8647 5.0501 7.3950
9.6750 11.7388 13.3201 14.4949 15.2540 15.4470
15.2939 15.0248 14.7725 14.7688 15.1195 15.8536
17.1054 18.6867 20.4192 22.1498 23.6337 24.6953
25.0377 24.8623 24.5032 24.4837 25.2113 26.6366
28.4675 30.7058 33.4461 36.2847 39.6421 43.4189
46.9869 50.2645 53.1152 55.3618 56.6099 56.7519
55.8936 54.0646 51.3976 48.1832 44.7098 40.8078
36.4789 31.7444 26.4866 21.4033 16.3923 12.2462
9.4605 7.3661 6.3797 5.2327 3.7072 2.2030
0.3434 -1.5228 -3.5401 -5.6484 -7.6769 -9.8242
-12.0959 -13.9713 -15.5293 -16.4897 -16.8646 -16.8841
-16.2224 -15.2378 -13.9609 -12.8919 -12.4186 -12.6339
-13.7456 -15.4855 -18.0012 -21.1646 -24.7549 -28.5873
-32.1915 -35.7688 -39.2532 -42.3174 -45.2887 -48.3286
-51.5932 -55.4080 -59.8381 -64.6217 -69.2773 -73.9867
-78.4715 -82.0348 -84.7834 -86.3248 -86.4788 -84.4493
-80.1677 -74.8551 -68.6211 -62.2014 -56.4360 -51.3090
-46.7898 -42.6882 -38.7648 -35.5540 -32.7107 -30.0131
-27.9484 -25.8085 -23.9767 -22.3602 -20.2741 -18.3356
-16.2273 -14.0475 -11.9456 -9.3065 -6.1774 -2.6029
0.9011 4.0682 6.3353 7.7773 8.7174 8.7044
8.5355 8.4362 8.2497 8.3565 8.9689 9.8756
11.3130 13.3239 15.2930 16.9699 18.8138 20.4006
21.0307 21.8445 22.7539 23.3423 23.6188 22.9127
21.3593 19.7353 17.3032 13.3473 8.8578 4.2645
0.6649 -1.9176 -4.7423 -7.2505 -9.7235 -12.2457
-14.3345 -16.1626 -16.7073 -16.2331 -14.6027 -11.1553
-6.8170 -1.8413 3.1641 7.9793 12.7852 17.4343
21.6909 25.5215 28.9123 31.2499 32.4841 32.6233
32.2762 32.4600 33.3777 35.1724 38.6839 43.4749
48.4302 53.3735 57.6644 61.2380 64.1286 66.7770
69.3902 71.2962 72.6687 73.3665 73.6412 73.2691
72.9852 73.2385 72.9221 72.8924 72.7876 72.3607
71.2184 69.2298 66.6074 63.1072 59.9512 57.6155
56.6013 56.1253 56.4213 56.6932 56.1958 55.2855
52.5842 49.0432 44.3208 39.0509 34.6533 30.5193
26.7054 23.2237 19.5545 14.9064 9.2709 2.5479
-5.0011 -12.7922 -20.3708 -27.7639 -35.2098 -41.6396
-47.3382 -52.5283 -56.4341 -60.3157 -64.0118 -66.8095
-69.1517 -71.0401 -72.0729 -72.2390 -71.9624 -71.1597
-70.3255 -69.2277 -68.1169 -66.8827 -66.1199 -65.1659
-64.9562 -66.6386 -66.9931 -68.6986 -70.9916 -73.0275
-76.0415 -78.7215 -81.8580 -83.7918 -84.4432 -83.9959
-82.1567 -78.3057 -73.4144 -67.8150 -61.1124 -54.2529
-46.4608 -39.0009 -31.6422 -24.5831 -18.7156 -13.2091
-8.8774 -5.3530 -2.2517 -0.0747 1.2133 1.0472
-0.4737 -3.6120 -8.6842 -14.8004 -21.4075 -27.5960
-32.7954 -37.1716 -40.9168 -43.9244 -45.9389 -46.2980
-44.7864 -41.1608 -34.7987 -26.7988 -18.4313 -11.4150
-6.4847 -3.1478 -1.0302 0.3033 1.3148 2.5240
3.5252 4.4727 5.2763 6.1960 7.5991 9.5005
11.8649 14.3389 17.2248 20.0171 22.7991 25.6721
28.4096 31.0747 33.0123 34.0600 33.9960 33.1302
32.3609 31.9879 32.2775 33.2630 34.8739 37.1335
39.8636 42.8841 45.8740 48.6291 51.0326 52.9748
54.3315 54.5867 53.9093 51.9977 49.1925 45.4315
41.1666 37.9633 34.5280 32.2137 30.8366 29.6424
30.0061 30.8014 32.3901 34.4520 36.6225 39.0631
41.4563 43.2130 44.2170 44.5121 43.7355 42.3825
39.9132 36.8055 33.4797 30.1168 27.3051 24.5305
21.9536 19.5362 17.0039 14.2803 11.3201 8.1781
4.8040 1.5488 -1.5914 -4.7920 -7.9275 -10.9044
-13.6261 -15.9395 -17.5393 -18.4765 -18.7465 -18.4765
-18.1572 -18.2370 -18.9478 -19.7143 -20.3592 -21.2538
-21.9729 -22.3265 -22.8517 -23.2228 -23.0122 -22.2447
-20.8110 -19.0516 -17.3172 -15.6126 -13.7603 -11.6000
-9.0017 -6.0740 -3.0191 0.0821 3.0832 5.9970
8.6064 10.8957 12.7266 13.6768 13.9005 12.9902
10.6833 7.0531 2.1665 -3.3029 -8.9152 -14.0876
-18.5567 -22.2156 -24.7443 -26.0545 -26.2429 -25.4875
-24.0529 -22.4633 -20.8820 -19.7898 -19.0873 -18.6205
-18.3820 -17.5088 -16.2551 -14.5931 -12.5191 -10.6892
-9.2035 -8.0695 -6.8947 -5.2782 -2.7411 0.9754
5.8073 11.6154 17.8513 24.1782 30.2702 35.7675
40.2171 43.0845 44.2240 43.4418 41.1265 38.0773
34.9473 32.3527 30.4059 28.9879 28.0637 27.4207
26.6987 25.8784 25.1481 24.5858 23.9789 22.7828
20.9213 18.5820 15.7693 12.6412 9.3924 6.4499
3.8145 1.5475 -0.0152 -0.9728 -1.1723 -0.8791
-0.5348 -0.1905 0.0378 -0.0606 -0.4234 -0.7834
-0.8669 -0.3899 1.0503 3.6968 7.0885 10.8681
14.7294 18.6343 22.7108 26.7577 30.5243 33.6849
36.3046 38.1373 38.9075 38.9001 38.2255 37.1491
35.8592 34.1768 32.1363 29.5566 26.3792 22.7751
18.7357 14.5116 10.0518 5.5847 1.4395 -2.3262
-5.2669 -7.5079 -9.4315 -11.1195 -12.6506 -13.9794
-15.0271 -15.8622 -16.5767 -17.3126 -18.1357 -19.1378
-20.4518 -21.3900 -21.4930 -21.0930 -20.1511 -18.5884
-16.7408 -15.0566 -13.9254 -13.6219 -13.9689 -14.6565
-15.5260 -16.2842 -16.9022 -17.5972 -18.3980 -19.1942
-19.6684 -19.9532 -20.6538 -21.8657 -23.5221 -25.7019
-28.3883 -31.5192 -34.9128 -38.3063 -41.5235 -44.5227
-47.0885 -49.0910 -50.7492 -51.8999 -52.4966 -52.6942
-52.5383 -52.0697 -51.3041 -50.5023 -49.9455 -49.7905
-49.8675 -49.9046 -49.7320 -48.9683 -47.4455 -45.3269
-42.5922 -39.6404 -36.5855 -33.3775 -30.3069 -26.9096
-23.7295 -20.6626 -17.4667 -14.6911 -11.6539 -8.7243
-5.7799 -2.4531 0.8040 4.0686 7.0706 9.7756
12.5354 15.1736 17.7774 20.4945 23.2255 26.2906
29.3584 32.3391 35.0765 37.2461 39.0213 40.0699
40.3669 39.8825 38.8358 37.4615 35.6084 33.5056
31.0809 28.2720 25.2190 22.1001 19.0527 16.2002
13.4989 10.6529 7.9024 5.2559 2.6437 0.3990
-1.4903 -2.6085 -2.8590 -2.3793 -0.6495 2.1492
5.7664 9.9051 14.3612 19.1829 23.9833 28.5850
32.9297 36.8662 40.1669 42.8599 44.9525 46.5727
47.7030 48.2356 48.5651 48.6217 48.3879 48.0798
47.7068 47.3950 46.9579 45.8871 43.3872 39.1464
34.1317 29.2581 24.7427 20.3460 15.9169 11.4497
6.9760 2.4708 -2.3917 -7.2876 -11.9766 -16.3037
-20.0814 -23.5306 -26.7302 -29.8602 -32.9595 -36.1573
-39.3847 -42.4665 -45.2605 -47.3262 -48.8443 -49.9810
-50.4747 -50.7707 -51.2087 -51.5288 -52.2071 -53.0441
-54.0630 -55.2573 -56.2075 -57.1688 -57.3906 -57.4444
-56.9628 -56.0311 -55.7351 -55.3249 -55.3833 -56.1192
-57.2327 -58.5458 -59.8329 -61.0550 -62.3717 -63.3600
-63.8954 -64.5682 -65.1843 -65.6037 -65.9183 -66.4064
-67.0337 -67.7593 -68.1398 -68.2799 -68.6037 -68.6854
-68.5666 -68.2798 -67.2340 -64.8250 -61.0473 -55.9360
-49.4505 -42.2226 -34.7312 -27.2453 -20.2104 -13.7797
-8.0848 -2.7397 2.5079 7.8493 13.5507 19.3904
25.3599 31.3453 37.2444 43.0933 48.7557 54.1760
59.3995 64.3631 68.9092 72.9561 76.5566 79.6829
82.8138 85.8130 88.9885 92.0081 95.1613 98.3173
100.2401 103.6828 106.1048 107.0421 108.3115 108.1612
107.7010 106.3118 104.6759 102.3504 99.3345 96.3233
92.9372 89.1781 84.9559 80.9155 76.8483 73.3462
69.9220 66.7531 63.9265 61.4749 59.3517 56.9242
54.4753 51.6135 48.7823 45.8676 42.3692 38.7557
35.0625 31.0732 27.2871 23.2125 19.1397 15.3081
11.1648 7.3398 3.1213 -1.4072 -5.8539 -10.1077
-13.4659 -16.2340 -18.2551 -19.5440 -20.5397 -21.2598
-22.1896 -23.2252 -24.6459 -26.4795 -28.4579 -31.0850
-33.8354 -36.5775 -39.2083 -41.5384 -43.7014 -45.9443
-48.0851 -50.0134 -51.8656 -53.3967 -55.2814 -56.8904
-58.0058 -59.0748 -59.5165 -59.7151 -59.5657 -59.0451
-58.5523 -57.6290 -56.6416 -55.6728 -54.4386 -53.4438
-52.2365 -50.9346 -49.9305 -48.6184 -46.7429 -44.3942
-41.4201 -37.4419 -32.7019 -27.3411 -21.6248 -15.9206
-10.2953 -5.2379 -0.5387 3.8682 7.5076 10.6210
12.9316 13.7575 14.6836 14.2661 12.6338 16.6166
21.1497 21.2982 21.9069 22.5565 23.2247 23.7963
24.1332 24.3002 23.6358 22.5863 20.5383 17.2886
12.8623 7.7706 1.9217 -3.6405 -8.1272 -11.8084
-13.9919 -15.1982 -15.3958 -14.8270 -14.1932 -13.5696
-13.0035 -12.4560 -12.3465 -12.3149 -12.3520 -12.8503
-13.6187 -14.6914 -15.9933 -17.4687 -18.9061 -20.1477
-21.1926 -21.8421 -22.3822 -23.0503 -23.6061 -24.1341
-24.7030 -25.0955 -25.1317 -24.8449 -24.4561 -23.6858
-22.3644 -20.6969 -18.8465 -17.0639 -15.2293 -13.2406
-10.7862 -7.7545 -4.5716 -1.2421 2.1348 5.6583
9.0769 11.9118 14.4498 16.4932 18.2823 20.2505
22.3338 24.5749 26.6878 28.5939 30.2345 31.8446
33.5910 35.3783 37.2472 39.1170 41.0880 42.8864
44.4761 45.9710 47.3231 48.4728 49.1400 49.6226
49.8797 49.9084 49.8110 49.1448 48.2781 47.0689
45.4951 44.0355 42.4552 40.8461 39.2881 37.6549
35.9892 34.4302 32.6356 30.7732 28.7178 26.2698
23.3653 19.4874 14.8727 9.2854 2.9874 -3.6030
-10.0690 -15.8548 -21.1117 -25.7496 -30.0860 -34.4325
-38.5266 -42.5215 -46.5256 -50.5919 -54.5961 -58.2782
-61.8202 -65.0347 -68.1702 -71.1258 -73.8168 -76.6443
-79.1702 -81.7963 -84.1617 -86.3294 -88.4776 -89.7600
-91.0730 -91.3477 -91.4136 -91.6771 -90.3900 -89.0936
-87.6608 -85.6685 -83.1769 -80.5777 -78.1446 -75.0786
-71.5477 -67.8061 -63.0577 -57.3053 -51.0434 -44.2498
-37.5146 -30.2895 -22.9364 -15.6138 -7.9925 -1.0160
5.6198 11.8288 17.3019 22.2879 26.6363 30.5709
34.1398 37.1436 39.6130 41.3835 42.5509 43.3638
43.6320 43.7805 44.0051 44.1712 44.6129 45.0741
45.6346 46.0940 46.5589 47.2484 47.6057 48.1885
48.4511 48.4864 48.4112 47.5278 46.7762 45.0558
43.7093 42.6422 40.8067 40.1757 39.1800 38.5601
38.7207 38.9109 39.6477 40.6537 41.9964 43.5833
44.5743 44.9706 45.6220 45.4494 45.4643 45.2611
44.1912 43.6688 42.8744 42.2462 41.7424 40.7894
40.0971 39.3566 38.3656 37.1732 35.5075 33.3843
30.9392 28.3418 25.5088 22.7834 20.2259 18.0165
16.1466 14.0597 12.1509 10.0518 7.7422 5.3573
2.4872 -0.3440 -3.1622 -5.9424 -8.3783 -10.7158
-12.8334 -15.0558 -17.5891 -19.9127 -22.2568 -24.6128
-26.6497 -28.4425 -30.0172 -31.5363 -33.2038 -34.8268
-36.3310 -37.8371 -39.1501 -40.0567 -40.3397 -39.7764
-38.5042 -36.7179 -34.5084 -32.4307 -30.6499 -28.9313
-27.2749 -25.7381 -24.4130 -23.2874 -22.4541 -21.7033
-21.3071 -21.0584 -20.4570 -19.7750 -18.6465 -17.0931
-15.0033 -12.5322 -9.7260 -6.4976 -3.2136 -0.0000
2.9890 6.1106 8.7600 11.2339 13.7636 15.7847
17.4207 18.3524 19.0808 19.6515 19.7945 20.0766
20.2900 20.6278 21.0408 21.1893 21.8973 22.2852
22.0857 21.8445 21.2608 20.7551 20.2725 19.8420
19.5655 19.3604 18.9549 18.2775 17.4451 16.4086
15.3341 14.1602 12.9594 11.7921 10.6071 9.4546
8.2696 6.9751 5.7344 4.4455 3.0424 1.7545
0.4201 -0.9199 -2.3081 -3.5989 -4.5491 -5.2571
-5.7452 -6.3326 -7.0824 -8.0168 -9.2547 -10.7571
-12.4636 -14.2564 -16.0816 -17.8949 -19.7146 -21.3348
-22.8306 -24.1576 -25.1208 -25.8929 -26.3318 -26.7104
-27.1483 -27.6086 -28.2860 -28.9003 -29.4190 -29.8384
-30.0407 -30.0323 -29.9256 -29.8068 -29.5878 -29.2992
-28.8964 -28.3248 -27.6567 -26.8799 -26.0262 -25.3144
-24.8003 -24.4356 -24.3011 -24.4384 -24.6592 -24.8337
-24.9766 -25.0146 -25.0582 -25.0452 -25.0433 -25.1463
-25.1649 -25.1407 -24.8799 -24.3519 -23.6847 -22.7966
-21.7981 -20.7412 -19.5868 -18.3117 -16.7268 -14.7307
-12.3468 -9.7290 -7.2439 -5.0966 -3.3511 -1.9238
-0.8168 -0.0280 0.6364 1.1069 1.3538 1.3835
1.1803 0.8314 0.3943 0.0074 -0.2070 -0.1633
0.2459 1.0820 2.2151 3.6135 5.2523 7.0776
9.1117 11.2869 13.5595 15.8562 18.1232 20.2696
22.1794 23.7885 25.1331 26.1817 26.9816 27.6349
28.2168 28.9814 29.7869 30.4226 30.9265 31.4211
31.8340 31.9055 31.8814 31.9324 32.0308 32.0058
31.8174 31.7571 31.6643 31.5177 31.1596 30.6297
30.2066 29.5821 28.8620 27.9415 26.8131 25.6986
24.4579 23.2423 22.0230 20.8380 19.8897 19.1547
18.6601 18.4662 18.4180 18.3939 18.5043 18.6008
18.7085 18.9358 19.1474 19.4407 19.7163 20.0253
20.2972 20.4866 20.7009 20.8763 21.1816 21.3682
21.6132 21.8285 21.8155 21.7710 21.4304 20.9052
20.2724 19.6376 19.0466 18.4954 18.1233 17.9321
17.7289 17.4663 17.1582 16.6312 15.8192 14.6890
13.2915 11.5896 9.7040 7.6672 5.4345 3.2074
1.0091 -1.1772 -3.1175 -4.8138 -6.2280 -7.5104
-8.5794 -9.0935 -9.4600 -9.6196 -9.8952 -10.2599
-10.3684 -10.6375 -10.9205 -10.8899 -10.5976 -10.3192
-9.8153 -9.0469 -8.2953 -7.6457 -7.0388 -6.4170
-5.7479 -5.0603 -4.3606 -3.3779 -2.1520 -0.5782
1.2499 3.2376 5.4786 7.6287 9.5904 11.3712
12.9812 14.3565 15.3244 16.0139 16.4472 16.6616
16.6542 16.3916 16.0492 15.4470 14.5060 13.4296
12.0470 10.3358 8.4697 6.2241 3.6583 0.8614
-2.1795 -5.2482 -8.4571 -11.7245 -14.7886 -17.6012
-20.0779 -22.2400 -24.1915 -25.9871 -27.5238 -28.8730
-30.2056 -31.4843 -32.6841 -33.8042 -34.9409 -35.9468
-36.7754 -37.3099 -37.5679 -37.5864 -37.0204 -36.3680
-35.5560 -34.3998 -33.3985 -32.3842 -31.5759 -30.9570
-30.2703 -29.8601 -29.3701 -28.9135 -28.4987 -28.0004
-27.8231 -27.5893 -27.3146 -26.8692 -26.4182 -26.0108
-25.3417 -24.7571 -24.2717 -23.7372 -23.1526 -22.7340
-22.1160 -21.1184 -19.7720 -17.9188 -15.6258 -13.0377
-10.4524 -7.9441 -5.8024 -4.3315 -3.7404 -4.0253
-4.8966 -6.2449 -7.7473 -9.1977 -10.5274 -11.6224
-12.4325 -12.8668 -12.9001 -12.4575 -11.5889 -10.3129
-8.8273 -7.3156 -5.7139 -4.3266 -3.1008 -2.0744
-1.3608 -0.7836 -0.3131 0.2158 0.8775 1.8259
3.0972 4.6766 6.4629 8.5221 10.7093 13.1044
15.8428 18.3808 21.0209 23.3547 25.2125 26.7724
27.5723 27.8173 27.5324 26.9163 25.9559 24.7885
23.7279 22.7767 21.8831 21.0507 20.2973 19.4565
18.5963 17.6721 17.0207 16.6124 16.0250 15.2446
14.3111 13.4528 12.8403 12.5443 12.5434 12.9118
13.5252 14.2323 14.9098 15.4044 15.7682 15.9714
16.1292 16.1913 16.0921 15.9065 15.6439 15.3497
15.1011 14.9953 15.1076 15.2700 15.2672 15.0909
14.5769 13.7695 12.6050 11.0803 9.4212 7.4084
5.2667 3.0424 0.5360 -1.8720 -4.3023 -6.8125
-9.1212 -11.3010 -13.2803 -14.8652 -16.2479 -17.7475
-19.2183 -20.8450 -22.4661 -23.9935 -25.8633 -27.5197
-28.9302 -29.9482 -30.6487 -31.2250 -31.1665 -30.8120
-29.9954 -28.6601 -27.0556 -24.9714 -22.6979 -20.4392
-18.3290 -16.5325 -14.8918 -13.4451 -12.1218 -10.9414
-10.0942 -9.4734 -8.9908 -8.5380 -8.0229 -7.5858
-7.1877 -6.7822 -6.6625 -6.5520 -6.4629 -6.3785
-6.0017 -5.5721 -4.9661 -4.3712 -3.7115 -2.9217
-2.2796 -1.4704 -0.6343 0.2436 1.2634 2.2573
3.3458 4.7016 6.4369 8.5508 11.0563 13.8077
16.6009 19.3811 22.0972 24.5359 26.5394 28.1531
29.3762 30.1538 30.5993 30.7812 30.7543 30.5548
30.1010 29.5526 29.0070 28.5217 28.1904 27.9566
27.5873 27.0500 26.5155 25.8966 25.1050 24.1520
23.1805 22.1523 20.7594 18.8618 16.7275 14.4939
12.1026 9.5646 6.9366 4.4098 1.8468 -0.8999
-3.8267 -6.8463 -9.7665 -12.5718 -15.2350 -17.6616
-19.8766 -21.8819 -23.5327 -24.9210 -26.1802 -27.2585
-28.3117 -29.2870 -30.1305 -30.9396 -31.5790 -32.0476
-32.3928 -32.6721 -32.7324 -32.6674 -32.7351 -32.8288
-32.7694 -32.5560 -32.2785 -31.7783 -31.0981 -30.2481
-29.1308 -27.7620 -26.1706 -24.2840 -22.0903 -19.5096
-16.4798 -13.1874 -9.6148 -6.0105 -2.4741 1.0188
4.3613 7.6491 10.7643 13.7096 16.5650 19.1967
21.6632 24.0973 26.4561 28.8614 31.4338 34.1564
37.0266 39.9877 42.9702 45.8979 48.6837 51.2588
53.4980 55.3548 57.0113 58.3058 59.1846 59.5975
59.7265 59.9279 59.5874 58.8487 57.9199 56.7822
55.6594 54.1013 52.4097 50.7644 48.9651 47.2753
45.7062 44.0962 42.5548 40.9458 39.1994 37.3128
34.9391 32.4596 29.9486 27.4199 24.9896 22.4730
19.9239 17.3795 15.0308 12.7397 10.7715 9.1587
7.8800 7.0708 6.4389 6.1587 6.0084 6.0464
6.3397 6.7239 7.2565 7.6444 8.0101 8.3720
8.5891 8.5622 8.2477 7.7225 6.9170 5.8842
4.6101 3.1161 1.4625 -0.2124 -2.0535 -4.2602
-6.7109 -9.5885 -12.9987 -16.9166 -21.1118 -25.3749
-29.8216 -34.1329 -38.1992 -42.0428 -45.4150 -48.2731
-50.5652 -52.3264 -53.6367 -54.6259 -55.2764 -55.5677
-55.7394 -55.8322 -55.7681 -55.3821 -54.7390 -53.8556
-52.2400 -49.8384 -46.5803 -42.3822 -37.5614 -32.5560
-27.8355 -23.3747 -19.1618 -15.0296 -10.8741 -6.7039
-2.6273 1.2877 4.8938 7.8893 10.6936 13.1564
15.4169 17.6969 19.6763 21.3002 22.4008 23.0847
23.3901 23.5868 23.8401 24.0777 24.3079 24.3153
24.4916 24.6884 24.5334 24.2513 23.5266 22.4882
21.3135 19.8287 18.1362 16.4723 14.9681 13.6532
12.5378 11.5616 10.8267 10.3497 10.0964 10.0036
9.9090 9.4348 8.8280 8.0290 6.7215 5.3250
3.7131 1.9416 0.1321 -1.8258 -3.7996 -5.5358
-7.1597 -8.8727 -10.5031 -12.1679 -13.8855 -15.8416
-17.9973 -20.1752 -22.4765 -24.6655 -26.8629 -29.0121
-30.9255 -32.9308 -34.9204 -36.8319 -38.9003 -40.9446
-43.0260 -45.1761 -47.4375 -49.7852 -52.1729 -54.7702
-57.3193 -59.7886 -62.0881 -64.3291 -66.3882 -68.1290
-69.7177 -70.9546 -72.2092 -73.3720 -74.2312 -74.9328
-75.5248 -75.9702 -76.0082 -75.9414 -75.7224 -75.1201
-74.1894 -72.8271 -71.1252 -69.0187 -66.6069 -64.1525
-61.7295 -59.4124 -57.1222 -54.7345 -52.2105 -49.3208
-45.9087 -42.1309 -37.9941 -33.4749 -28.5715 -23.2998
-17.7441 -12.1596 -6.7319 -1.4583 3.3671 7.7452
11.6492 14.9518 17.8832 20.4156 22.6957 24.8522
26.7861 28.7525 30.7588 32.8393 35.0209 37.1886
39.3369 41.3125 43.1527 44.7117 46.1649 47.4585
48.3753 49.1919 50.0039 50.7611 51.4163 52.0473
52.4909 52.7674 53.0681 53.3066 53.2955 53.4932
53.5321 53.9358 54.6160 54.5047 54.8462 54.7766
54.1094 53.2724 52.0225 50.5888 48.7598 46.8714
44.8847 42.7235 40.1382 37.7821 35.6729 33.9014
32.4965 30.9264 29.7015 28.5072 27.5821 26.8239
25.8088 24.7110 23.6216 22.7271 21.8947 21.2368
20.6318 20.1771 19.8662 19.7261 19.8486 19.9684
20.2681 20.7080 21.2972 21.8364 22.2011 22.5222
22.6057 22.6939 22.6809 22.4796 22.4239 22.3005
22.1270 21.7595 21.0469 20.0976 19.0379 18.1053
17.3119 16.9398 16.9741 17.3277 17.8808 18.4422
18.9953 19.4472 19.8824 20.1479 20.2008 20.0170
19.4900 18.7346 17.5756 16.0853 14.4605 12.7419
10.9992 9.2482 7.6196 5.9317 4.2855 2.6189
0.9811 -0.5621 -2.2222 -3.7023 -5.4292 -7.3037
-9.3044 -11.6827 -14.1789 -16.9349 -19.7086 -22.5890
-25.4387 -28.1159 -30.8162 -33.3198 -35.6982 -37.9420
-40.0252 -41.9878 -43.6619 -45.1067 -46.4077 -47.4934
-48.3768 -48.9577 -49.3075 -49.6081 -49.8438 -49.9746
-50.0080 -49.9561 -49.7018 -49.3297 -48.7367 -47.8059
-46.7712 -45.4665 -43.8611 -42.1304 -40.1066 -38.0029
-35.7423 -33.3936 -31.2176 -28.9366 -26.9266 -24.9046
-22.8594 -20.9431 -18.7485 -16.5473 -14.1773 -11.7850
-9.5208 -7.2946 -5.3152 -3.5419 -1.9959 -0.7181
0.4744 1.6445 2.8945 4.2623 5.6645 7.1836
8.7138 10.3164 11.9116 13.4000 14.7966 15.9752
17.0720 18.0455 18.8881 19.7437 20.4953 21.1143
21.5978 21.9328 22.1629 22.1462 21.8734 21.2907
20.4212 19.3550 18.1153 17.0760 16.1480 15.3862
14.8916 14.2764 13.5962 12.7313 11.7060 10.5683
9.1077 7.4736 5.4878 3.1939 0.8072 -1.7707
-4.2409 -6.6480 -8.9215 -10.9630 -12.8941 -14.5913
-16.1280 -17.4039 -18.6613 -19.9586 -21.1259 -22.1791
-22.9568 -23.7307 -24.6029 -25.4121 -26.0589 -26.3289
-26.1999 -25.5587 -24.6381 -23.6396 -22.4314 -21.2454
-19.9686 -18.7483 -17.6273 -16.3968 -15.1143 -13.5433
-11.8293 -9.9966 -8.0432 -6.0648 -4.0251 -2.0588
-0.0636 1.9018 3.7800 5.6276 7.3982 8.9980
10.3537 11.5582 12.6013 13.4105 14.1631 14.8711
15.4428 16.0181 16.4626 16.7113 16.6074 15.9931
15.2099 14.3395 13.3216 12.2052 11.1381 10.2111
9.2469 8.1882 6.9688 5.5936 4.1191 2.4868
0.7182 -1.3113 -3.5616 -5.9780 -8.5744 -11.1272
-13.6299 -15.9943 -18.1462 -20.1720 -21.9787 -23.6425
-25.0511 -26.0589 -26.6824 -27.0016 -27.2958 -27.5343
-27.7867 -28.0873 -28.4186 -28.7665 -28.8148 -28.4928
-27.7662 -26.7593 -25.4722 -24.1044 -22.7551 -21.3390
-20.0538 -18.6850 -17.4295 -16.2055 -14.8776 -13.4847
-11.9767 -10.5792 -9.1455 -7.8166 -6.5500 -5.1571
-3.6547 -1.9723 -0.1869 1.6728 3.4517 4.9977
6.3200 7.4104 8.2660 8.9852 9.6654 10.3716
11.1140 11.9371 12.9142 13.9461 15.0458 16.1770
17.2200 18.1972 19.0119 19.6365 20.2220 20.7965
21.3300 21.7532 22.0196 22.1792 22.1968 22.1337
21.9695 21.8099 21.7283 21.6336 21.5752 21.4184
21.3042 21.2309 21.1382 21.1688 21.1985 21.3915
21.6022 21.7572 21.9159 21.8908 21.8472 21.8565
22.0357 22.2927 22.5980 23.0370 23.4082 23.7228
23.9566 24.0225 23.7840 23.0779 21.9625 20.4017
18.4279 16.3317 14.3403 12.6393 11.2122 10.0931
9.2468 8.4998 7.8836 7.2675 6.6819 6.0101
5.1490 4.1932 3.0463 1.7555 0.2763 -1.2910
-2.8713 -4.4135 -5.7322 -6.8874 -7.8265 -8.5865
-9.2741 -9.8968 -10.6419 -11.5578 -12.6954 -14.0939
-15.6797 -17.4688 -19.3043 -21.2048 -23.1646 -25.0697
-27.0258 -28.9597 -30.8434 -32.6817 -34.4661 -36.1597
-37.7947 -39.3954 -40.9098 -42.4029 -43.6928 -44.8805
-45.9876 -46.9396 -47.7776 -48.3659 -48.7231 -48.6238
-48.1422 -47.3469 -46.2027 -44.9620 -43.6156 -42.2412
-40.8697 -39.3979 -37.9559 -36.4386 -34.7108 -32.9458
-31.0973 -29.2237 -27.3130 -25.1824 -22.9228 -20.5565
-18.1531 -15.8972 -13.8343 -12.0823 -10.5864 -9.1230
-7.6299 -5.9280 -4.0127 -1.8941 0.4332 2.8663
5.4108 7.9701 10.5833 13.1899 15.7066 18.1490
20.3464 22.3453 24.1186 25.5904 26.9285 28.0959
29.1881 30.1384 30.9216 31.7475 32.3952 32.9947
33.6600 34.3115 35.0075 35.7359 36.5377 37.3311
38.0605 38.6182 38.9477 39.0201 38.8336 38.3000
37.5474 36.7253 35.6637 34.5427 33.3726 32.2294
31.2021 30.1842 29.3138 28.4285 27.5878 26.8454
25.9277 25.0638 24.2129 23.2979 22.3959 21.3706
20.5688 19.9582 19.3681 18.9087 18.5932 18.5348
18.6267 18.7742 18.9868 19.1900 19.2559 19.2587
19.0731 18.6342 18.1554 17.4669 16.7189 15.9321
14.9763 14.0038 12.9227 11.7349 10.3495 8.7395
7.0237 5.1845 3.3351 1.4607 -0.4138 -2.3161
-4.3966 -6.5170 -8.6911 -10.8208 -12.8011 -14.7544
-16.4711 -18.0579 -19.4619 -20.6487 -21.8569 -22.7320
-23.5050 -24.1304 -24.3976 -24.6110 -24.6008 -24.4189
-23.9503 -23.3360 -22.8515 -22.3050 -21.7584 -21.1441
-20.5316 -19.9163 -19.1006 -18.1875 -17.1630 -16.1163
-14.9712 -13.5764 -12.1631 -10.6802 -9.0721 -7.3980
-5.7137 -4.1529 -2.7359 -1.4386 -0.2322 0.8331
1.8279 2.7141 3.3971 3.8620 3.9910 3.8296
3.4315 2.9684 2.5258 2.0850 1.7677 1.4736
1.1571 0.8212 0.3099 -0.3953 -1.1961 -2.0229
-2.8553 -3.6988 -4.4625 -5.1955 -5.8228 -6.2812
-6.6719 -6.8630 -6.8974 -6.7934 -6.5178 -6.0993
-5.5490 -4.9105 -4.2841 -3.7524 -3.3116 -3.0304
-2.8235 -2.6713 -2.4680 -2.1534 -1.8416 -1.4481
-0.9739 -0.4292 0.2436 1.0917 2.1886 3.4636
4.6487 5.6249 6.2271 6.3793 6.2429 5.8560
5.3568 4.7917 4.1959 3.5918 2.9952 2.4978
2.0682 1.7833 1.6608 1.7156 2.0422 2.5471
3.0343 3.4667 3.7683 3.8073 3.7127 3.5401
3.2478 2.8219 2.2094 1.4773 0.6625 -0.1810
-0.9047 -1.4337 -1.6991 -1.7324 -1.6257 -1.4058
-1.0838 -0.7497 -0.4629 -0.2253 -0.0351 0.2127
0.4651 0.7463 1.1611 1.6975 2.3109 2.8807
3.3818 3.7279 3.9562 4.1854 4.3367 4.3970
4.2671 3.8913 3.3383 2.5978 1.7895 1.0249
0.3447 -0.2204 -0.6602 -0.8319 -0.7901 -0.4959
0.1750 1.1095 2.2880 3.6354 5.0877 6.5335
7.8567 9.0863 10.1869 11.1863 12.0642 12.7277
13.1796 13.5220 13.8478 14.2366 14.8184 15.6870
16.8683 18.3290 20.0624 21.8450 23.4634 24.9008
26.0673 26.9767 27.6801 28.1822 28.4856 28.6007
28.4717 28.0226 27.3740 26.6214 25.8419 25.1228
24.5122 24.0770 23.7689 23.5175 23.2475 22.8577
22.3251 21.7052 21.0455 20.3560 19.5441 18.5577
17.4775 16.2396 14.7410 13.0475 11.2992 9.5176
7.7201 5.9310 4.1243 2.3621 0.6872 -0.9683
-2.6869 -4.5418 -6.5240 -8.6917 -11.0375 -13.4576
-16.0466 -18.7089 -21.2942 -23.7774 -26.0889 -28.1889
-30.0829 -31.7355 -33.1405 -34.2707 -34.9583 -35.3341
-35.4139 -35.1383 -34.7225 -34.2632 -33.8883 -33.5468
-33.2275 -32.9157 -32.4935 -31.9432 -31.2175 -30.4222
-29.5305 -28.6452 -27.7924 -26.9024 -26.0570 -25.1606
-24.3041 -23.4142 -22.4463 -21.4292 -20.3695 -19.3812
-18.4458 -17.6357 -16.8849 -16.2038 -15.5635 -14.9065
-14.2838 -13.6351 -13.0552 -12.6376 -12.3081 -11.9842
-11.6650 -11.3449 -11.0293 -10.7222 -10.4373 -10.2238
-10.1440 -10.2294 -10.3825 -10.5884 -10.8186 -11.0505
-11.1712 -11.1517 -10.9939 -10.6069 -10.1977 -9.6910
-9.1175 -8.5913 -8.0150 -7.4499 -6.8922 -6.3465
-5.8779 -5.6190 -5.3879 -5.1336 -4.9601 -4.7392
-4.5165 -4.3105 -4.0775 -3.7852 -3.3667 -2.7913
-2.0657 -1.1581 -0.0083 1.4217 3.0150 4.7178
6.4717 8.1559 9.8411 11.4595 12.9544 14.3158
15.5017 16.4715 17.1684 17.7001 18.1196 18.4898
18.8480 19.1515 19.3965 19.4856 19.4754 19.4049
19.2249 19.0059 18.7498 18.4659 18.1411 17.7337
17.2827 16.7046 15.9873 15.3192 14.6149 13.9097
13.3325 12.7655 12.2440 11.7309 11.1472 10.5552
10.0272 9.6375 9.4306 9.3146 9.1578 8.8998
8.3653 7.6016 6.7052 5.7086 4.7398 3.8453
2.9981 2.0868 1.0615 -0.0010 -1.0608 -2.1214
-3.1162 -4.0237 -4.7781 -5.4184 -6.0141 -6.5031
-6.9884 -7.4171 -7.7874 -8.1168 -8.3284 -8.4685
-8.5566 -8.6512 -8.7830 -8.9769 -9.2182 -9.4956
-9.7833 -9.9596 -10.0598 -10.0904 -9.9679 -9.7628
-9.3740 -8.8070 -8.1834 -7.4271 -6.7339 -6.1028
-5.5284 -5.1953 -4.9827 -4.9586 -5.1720 -5.6248
-6.4015 -7.3647 -8.4504 -9.5250 -10.4288 -11.1034
-11.4820 -11.6388 -11.5367 -11.1405 -10.4825 -9.4896
-8.2192 -6.7632 -5.2395 -3.7353 -2.2895 -0.9634
0.2652 1.4094 2.4728 3.4073 4.1989 4.8299
5.3245 5.8442 6.3564 6.9986 7.7828 8.5799
9.4531 10.2948 11.1457 11.9419 12.6435 13.2550
13.7135 14.0281 14.1162 13.9826 13.6940 13.3238
12.9331 12.6826 12.5416 12.3690 12.1120 11.6007
10.7989 9.7058 8.3677 6.8867 5.3296 3.7224
2.0799 0.3984 -1.2979 -2.8949 -4.3786 -5.7780
-7.1467 -8.4941 -9.8758 -11.3197 -12.7868 -14.3569
-16.0486 -17.9137 -19.8216 -21.6701 -23.4304 -25.0515
-26.5233 -27.6609 -28.6037 -29.2375 -29.6718 -29.8091
-29.7237 -29.3794 -28.5526 -28.0701 -26.6512 -24.6588
-23.1620 -21.2319 -19.3518 -17.5423 -15.8320 -14.1969
-12.6435 -11.2358 -9.7585 -8.4352 -7.0534 -5.5343
-3.9651 -2.3059 -0.5595 1.2343 2.9909 4.6789
6.2063 7.5602 8.7350 9.6584 10.3488 10.7450
10.8778 10.8304 10.7052 10.6885 10.7720 11.0337
11.5051 12.1640 13.0280 13.8733 14.6213 15.2625
15.7423 16.0912 16.3251 16.4819 16.5283 16.4884
16.4226 16.2611 16.1674 16.1136 15.9587 15.8640
15.6432 15.3592 15.1755 14.9946 14.8600 14.6661
14.3887 14.1539 13.9442 13.6380 13.2798 12.8214
12.2999 11.8406 11.1864 10.3939 9.4743 8.3710
7.2445 5.9704 4.6898 3.4872 2.3653 1.4550
0.6496 -0.0325 -0.6032 -1.2147 -1.8800 -2.6168
-3.4260 -4.2908 -5.1278 -5.9101 -6.7034 -7.3215
-7.7270 -8.0963 -8.4313 -8.7941 -9.1959 -9.5958
-10.0561 -10.4792 -10.8736 -11.1946 -11.4173 -11.6047
-11.5240 -11.2113 -10.7519 -10.0921 -9.3247 -8.5090
-7.7258 -7.0474 -6.4813 -6.0795 -5.7965 -5.5348
-5.3176 -5.0466 -4.7385 -4.4564 -4.1465 -3.9015
-3.7419 -3.7103 -3.8346 -4.0508 -4.3552 -4.7282
-5.1495 -5.5606 -6.0635 -6.5850 -7.0053 -7.4832
-7.9936 -8.5485 -9.0719 -9.5711 -10.1269 -10.6234
-11.1068 -11.4975 -11.8584 -12.3317 -12.8142 -13.3561
-13.9871 -14.7072 -15.4533 -16.1557 -16.8424 -17.4075
-17.7378 -17.8538 -17.7712 -17.4845 -17.0557 -16.5908
-16.1639 -15.7185 -15.1821 -14.5585 -13.8217 -12.9030
-11.7959 -10.5469 -9.1679 -7.6368 -5.9794 -4.2311
-2.3344 -0.4005 1.5863 3.5239 5.3019 7.0557
8.6435 10.1375 11.5981 13.0337 14.2679 15.2126
16.0561 16.6705 17.1669 17.5604 17.8852 18.1896
18.3585 18.3845 18.1210 17.6459 17.0798 16.4924
16.0674 15.7779 15.4949 15.2156 14.7646 14.2552
13.5964 12.6462 11.7321 10.6195 9.5403 8.4509
7.1518 6.0652 4.8941 3.6868 2.5083 1.1814
-0.1567 -1.5403 -3.2051 -5.1148 -6.9336 -8.8071
-10.5888 -12.0559 -13.4738 -14.7766 -15.8261 -16.7188
-17.5039 -18.0560 -18.5153 -18.9152 -19.1723 -19.3977
-19.4979 -19.5276 -19.3726 -19.0590 -18.6340 -17.9602
-17.2541 -16.4801 -15.7609 -15.1466 -14.4553 -13.7713
-13.1338 -12.5204 -11.8978 -11.3530 -10.8965 -10.4993
-10.1522 -9.8228 -9.5351 -9.2446 -8.9736 -8.7175
-8.4400 -8.1468 -7.8934 -7.7737 -7.6855 -7.6530
-7.6911 -7.5649 -7.2605 -6.8058 -6.2304 -5.6838
-5.1976 -4.8161 -4.5331 -4.2937 -4.0199 -3.6227
-3.1179 -2.4906 -1.7528 -0.9260 -0.0574 0.8214
1.7141 2.5929 3.5097 4.4135 5.2970 6.2556
7.2402 8.2405 9.3077 10.4259 11.5905 12.7839
13.9754 15.1363 16.1719 17.0795 17.8487 18.5355
19.2240 19.8708 20.5891 21.3212 22.0070 22.6445
23.1772 23.6486 24.0569 24.4783 24.8652 25.2262
25.5464 25.6874 25.6819 25.5075 25.1910 24.7818
24.2789 23.7156 23.0837 22.4416 21.8236 21.2083
20.6432 20.1264 19.6624 19.2151 18.7716 18.3911
17.9671 17.5393 17.2080 16.9111 16.6828 16.5112
16.3970 16.3247 16.2263 16.1196 15.9767 15.8348
15.6483 15.4144 15.1491 14.7862 14.4234 14.0253
13.6978 13.4760 13.2700 13.2793 13.3953 13.5188
13.7146 13.9540 14.1767 14.3011 14.3791 14.4236
14.4014 14.2603 14.0358 13.7509 13.3779 12.9297
12.4221 11.9396 11.4747 11.0061 10.6006 10.2684
9.9325 9.5743 9.2087 8.8069 8.4413 8.1676
7.9189 7.6971 7.4652 7.1515 6.7887 6.3452
5.8812 5.5091 5.2316 5.0925 5.0609 5.0953
5.1287 5.0962 5.0703 5.0230 4.9515 4.9153
4.8318 4.6537 4.3697 3.9206 3.3388 2.6753
1.9460 1.1869 0.4863 -0.1530 -0.7599 -1.2879
-1.7695 -2.2019 -2.5712 -2.8904 -3.1855 -3.5168
-3.9037 -4.3510 -4.8548 -5.4070 -5.9387 -6.4527
-6.9427 -7.3918 -7.8818 -8.3949 -8.9118 -9.4351
-9.9436 -10.3686 -10.7667 -11.1453 -11.3643 -11.4682
-11.4830 -11.4264 -11.3122 -11.1842 -11.0468 -10.8909
-10.7721 -10.6190 -10.4510 -10.2292 -9.8515 -9.2845
-8.5728 -7.8378 -7.1084 -6.5488 -6.2231 -6.0264
-6.0208 -6.1600 -6.3288 -6.4949 -6.5357 -6.4763
-6.3937 -6.2555 -6.1719 -6.1469 -6.1942 -6.3872
-6.6730 -7.0311 -7.4533 -7.9943 -8.6522 -9.4252
-10.3142 -11.3145 -12.3956 -13.5323 -14.7034 -15.8123
-16.9230 -17.9902 -18.9821 -19.9667 -20.8909 -21.7743
-22.6336 -23.4910 -24.3568 -25.2198 -26.1264 -27.0348
-27.8783 -28.7682 -29.6990 -30.6028 -31.5808 -32.5320
-33.4674 -34.3990 -35.1720 -35.8383 -36.2985 -36.5323
-36.5741 -36.4107 -36.0943 -35.6349 -35.1385 -34.5678
-34.0100 -33.5201 -33.0774 -32.6784 -32.2617 -31.8181
-31.2771 -30.6684 -29.9510 -29.1223 -28.2055 -27.2042
-26.2178 -25.2165 -24.1104 -23.0126 -21.9417 -20.8411
-19.7795 -18.6242 -17.4466 -16.2801 -15.0199 -13.7328
-12.3353 -10.8097 -9.1496 -7.3753 -5.5463 -3.6310
-1.6776 0.2368 2.1670 4.2437 6.3901 8.5931
10.9270 13.2914 15.5891 17.7577 19.7334 21.5438
23.2355 24.7982 26.2830 27.7241 29.1225 30.4709
31.7394 32.9272 34.0287 35.0467 36.0044 36.8628
37.5894 38.2111 38.6556 38.9136 38.9767 38.7735
38.3597 37.7185 36.7924 35.7159 34.4215 32.9117
31.3769 29.7000 27.9341 26.0226 23.9774 21.9238
19.6605 17.3323 15.0124 12.6248 10.2641 7.9683
5.8600 3.8640 1.9913 0.3145 -1.2389 -2.5770
-3.8529 -5.1130 -6.3964 -7.6705 -8.8137 -10.0256
-11.1930 -12.2610 -13.2428 -14.1587 -15.0671 -15.9004
-16.7244 -17.5197 -18.2537 -18.9441 -19.5639 -20.1875
-20.8324 -21.5432 -22.4303 -23.3379 -24.3373 -25.3432
-26.1319 -26.8353 -27.2789 -27.5257 -27.6314 -27.5247
-27.4059 -27.1452 -26.8064 -26.4547 -25.9063 -25.2353
-24.4011 -23.3748 -22.1925 -20.6994 -18.9279 -16.9913
-14.9265 -12.7690 -10.6597 -8.6860 -6.6992 -4.7551
-2.9279 -1.1574 0.5529 2.2594 3.8806 5.4006
6.9475 8.5000 10.0943 11.7108 13.2883 14.8111
16.1984 17.3983 18.3105 18.9935 19.4658 19.7795
20.0217 20.0756 19.9772 19.6626 19.1439 18.4777
17.5571 16.5076 15.3830 14.1052 12.7327 11.2972
9.7995 8.2888 6.8013 5.4112 4.0573 2.7443
1.5194 0.3028 -0.9081 -2.2063 -3.6409 -5.2073
-6.8609 -8.5136 -10.1236 -11.5888 -12.7989 -13.7760
-14.5137 -15.0157 -15.3331 -15.4166 -15.2987 -14.9656
-14.3642 -13.5467 -12.5872 -11.5228 -10.4092 -9.3374
-8.4020 -7.6438 -6.9831 -6.4263 -5.8454 -5.1652
-4.4395 -3.6118 -2.7144 -1.6612 -0.4223 0.8713
2.2892 3.7777 5.1436 6.3825 7.4534 8.3257
9.0161 9.5311 9.9088 10.2299 10.5695 10.8953
11.2256 11.5644 11.9300 12.2678 12.5434 12.8329
13.0714 13.2236 13.3267 13.3480 13.3490 13.3146
13.1569 13.0149 12.8507 12.6772 12.5436 12.3821
12.2188 12.0444 11.9219 11.8282 11.8366 11.9637
12.1669 12.4528 12.7581 13.0671 13.3492 13.7019
14.0526 14.2884 14.5222 14.6744 14.7208 14.7283
14.6522 14.5789 14.5186 14.4917 14.5539 14.5947
14.7080 14.9103 15.1126 15.3483 15.4996 15.6026
15.5868 15.3743 15.0579 14.6385 14.2543 13.9175
13.6707 13.5157 13.4007 13.4155 13.4944 13.5659
13.6476 13.6856 13.6652 13.5854 13.4388 13.1920
12.7856 12.3235 11.7361 11.0058 10.2653 9.4348
8.5013 7.4926 6.4106 5.2813 4.1186 2.9893
1.8776 0.7910 -0.2381 -1.2496 -2.2351 -3.2215
-4.1466 -4.9855 -5.7353 -6.4090 -7.0706 -7.7118
-8.4207 -9.1724 -9.9453 -10.7452 -11.6091 -12.5798
-13.5402 -14.5081 -15.4648 -16.3528 -17.2028 -18.0621
-18.8926 -19.6683 -20.3931 -20.9990 -21.4806 -21.8499
-22.1237 -22.3222 -22.4549 -22.5301 -22.5904 -22.6358
-22.6952 -22.7926 -22.9021 -22.9865 -23.0125 -23.0208
-22.9280 -22.6561 -22.2042 -21.5472 -20.6990 -19.7116
-18.6241 -17.5439 -16.4962 -15.5497 -14.8500 -14.3869
-14.2059 -14.3303 -14.7219 -15.3260 -16.0711 -16.9220
-17.7534 -18.4290 -18.9570 -19.2762 -19.3829 -19.3476
-19.1295 -18.7333 -18.2387 -17.7227 -17.2197 -16.8040
-16.5089 -16.2797 -16.0662 -15.8964 -15.7451 -15.5567
-15.4147 -15.3256 -15.2607 -15.2319 -15.2170 -15.1808
-15.1047 -15.0184 -14.9850 -15.0471 -15.1882 -15.3821
-15.6076 -15.8024 -15.9379 -15.9917 -15.8850 -15.7077
-15.4998 -15.2613 -15.1212 -15.0404 -15.0349 -15.1267
-15.2316 -15.3605 -15.4310 -15.4273 -15.4041 -15.3493
-15.2602 -15.0932 -14.8528 -14.4909 -13.9926 -13.4126
-12.7547 -12.0782 -11.3942 -10.6686 -9.9781 -9.3388
-8.7077 -8.0813 -7.4160 -6.6903 -5.8746 -4.9903
-4.0001 -2.8865 -1.7229 -0.4766 0.7929 2.0883
3.3986 4.6690 5.9347 7.1086 8.1758 9.1956
10.1134 10.9894 11.8162 12.5967 13.4532 14.2605
15.0400 15.7973 16.5007 17.1967 17.8101 18.4170
19.0331 19.6595 20.3258 20.9791 21.6064 22.2087
22.7497 23.2146 23.5979 23.9208 24.1825 24.3895
24.5853 24.7514 24.8767 24.9120 24.8934 24.8229
24.6541 24.4713 24.2801 24.0630 23.8013 23.4905
23.1908 22.8948 22.5997 22.3473 22.1450 21.9845
21.8564 21.7692 21.7126 21.5985 21.4473 21.3350
21.2450 21.1114 20.9193 20.7050 20.4517 20.2002
19.9664 19.7799 19.6481 19.5637 19.5683 19.6435
19.8180 20.0416 20.3590 20.7265 21.1051 21.5765
22.0322 22.4377 22.7801 23.0929 23.3704 23.6098
23.8511 24.0515 24.2343 24.4051 24.5768 24.7893
25.0482 25.3341 25.5874 25.8008 26.0310 26.2250
26.3159 26.2909 26.1006 25.7304 25.1375 24.3441
23.4189 22.3805 21.3366 20.3511 19.4334 18.5806
17.8021 17.0699 16.3257 15.5592 14.7371 13.9038
13.0556 12.1731 11.1951 10.0741 8.8298 7.4313
5.9949 4.5371 3.0356 1.4971 -0.0990 -1.6487
-3.2002 -4.6914 -6.0963 -7.4966 -8.8551 -10.2062
-11.4088 -12.5075 -13.5914 -14.5731 -15.5243 -16.4383
-17.2846 -18.1049 -18.8955 -19.6360 -20.3134 -20.8999
-21.4121 -21.8074 -22.0690 -22.2500 -22.3706 -22.4671
-22.5033 -22.4550 -22.3334 -22.1367 -21.8666 -21.5261
-21.1150 -20.5702 -19.8928 -19.1578 -18.3106 -17.3641
-16.4008 -15.3745 -14.3769 -13.4991 -12.7687 -12.1925
-11.7442 -11.4575 -11.2505 -11.1262 -11.0909 -11.0825
-11.0621 -11.0612 -11.0444 -10.9052 -10.7252 -10.4681
-10.1684 -9.8788 -9.5318 -9.1337 -8.7124 -8.2651
-7.8094 -7.3473 -6.8666 -6.4471 -6.0147 -5.6064
-5.3094 -5.0338 -4.7489 -4.4445 -4.1030 -3.7058
-3.3049 -2.8901 -2.4558 -1.9770 -1.4350 -0.8560
-0.2249 0.4098 1.0900 1.8649 2.6332 3.3441
4.0187 4.6071 5.1796 5.7652 6.3248 6.8815
7.4031 7.8828 8.2847 8.6633 9.0577 9.4159
9.7787 10.1407 10.5119 10.8970 11.2338 11.4705
11.5531 11.4928 11.3378 11.1690 10.9732 10.6994
10.3672 9.9757 9.5692 9.1897 8.8408 8.4891
8.1476 7.7941 7.4536 7.1260 6.7418 6.3178
5.7954 5.2451 4.5918 3.8393 3.0700 2.1792
1.2698 0.2453 -0.9025 -2.1107 -3.4099 -4.7248
-6.1130 -7.5569 -9.1000 -10.6878 -12.2560 -13.8437
-15.3470 -16.7900 -18.1262 -19.3641 -20.5250 -21.5374
-22.4848 -23.3951 -24.2878 -25.1768 -26.1325 -27.1663
-28.2037 -29.2365 -30.1747 -31.0191 -31.7568 -32.3442
-32.8230 -33.1404 -33.3631 -33.5839 -33.7481 -33.9291
-34.1527 -34.3912 -34.6510 -34.9182 -35.1372 -35.2857
-35.3887 -35.3432 -35.1659 -34.8699 -34.4050 -33.8324
-33.1364 -32.2910 -31.3287 -30.2393 -28.9986 -27.6085
-26.1228 -24.5759 -23.0438 -21.5693 -20.1077 -18.6925
-17.2356 -15.7268 -14.2234 -12.7053 -11.2363 -9.8592
-8.6315 -7.5272 -6.5037 -5.5237 -4.5549 -3.6594
-2.8363 -2.0540 -1.3664 -0.7920 -0.2454 0.2743
0.7847 1.3498 1.9057 2.4226 2.9265 3.3960
3.8006 4.1589 4.4892 4.8150 5.1611 5.5054
5.8710 6.1940 6.4677 6.7545 7.0162 7.3178
7.7048 8.1919 8.7905 9.4262 10.0628 10.6808
11.2552 11.7712 12.2157 12.5952 12.8876 13.1029
13.2578 13.2773 13.1502 12.9711 12.7039 12.3782
12.1128 11.8864 11.6832 11.5366 11.4615 11.4216
11.4346 11.4188 11.3372 11.1822 10.9076 10.5095
9.9444 9.2419 8.3863 7.4705 6.4636 5.4049
4.3637 3.3448 2.5208 1.8044 1.2523 0.8784
0.6306 0.5592 0.5861 0.7569 0.9536 1.1605
1.4269 1.6654 1.9382 2.1869 2.4143 2.6055
2.7280 2.8570 2.9433 3.0444 3.1549 3.2356
3.3192 3.4398 3.6171 3.7832 3.9493 4.1488
4.3753 4.5702 4.7159 4.8245 4.8978 4.8987
4.8254 4.7716 4.7039 4.6343 4.6083 4.6473
4.7773 5.0241 5.4250 5.9354 6.5442 7.2810
8.1115 8.9356 9.7151 10.4491 11.1061 11.6935
12.1631 12.5519 12.8535 13.0057 13.0716 13.0475
12.9965 13.0308 13.1617 13.3835 13.6879 14.0099
14.2873 14.5231 14.7207 14.8163 14.8126 14.7560
14.5890 14.3255 13.9896 13.6175 13.2454 12.8176
12.3564 11.8860 11.3942 10.8077 10.1953 9.6162
8.9853 8.3793 7.7604 7.0941 6.4195 5.6771
4.9144 4.1516 3.3582 2.6131 1.8846 1.1887
0.5271 -0.1457 -0.7312 -1.2815 -1.7445 -2.1296
-2.5249 -2.8469 -3.0946 -3.2644 -3.4129 -3.5539
-3.6263 -3.7451 -3.8815 -4.0030 -4.1533 -4.2916
-4.4827 -4.6488 -4.8186 -5.0422 -5.2213 -5.3661
-5.4820 -5.5850 -5.6574 -5.7186 -5.8096 -5.9218
-6.0684 -6.2577 -6.4609 -6.7077 -6.9592 -7.1689
-7.4046 -7.6189 -7.7758 -7.8509 -7.8704 -7.8370
-7.7182 -7.5669 -7.4156 -7.3191 -7.2829 -7.3385
-7.5213 -7.8146 -8.2089 -8.6321 -9.0728 -9.5479
-10.0100 -10.5028 -11.0094 -11.4558 -11.9142 -12.3494
-12.7623 -13.1836 -13.5260 -13.8396 -14.1597 -14.4622
-14.7703 -15.0747 -15.3502 -15.5831 -15.7520 -15.8652
-15.9125 -15.8791 -15.7696 -15.5506 -15.2740 -14.9511
-14.5335 -14.0602 -13.5044 -12.8585 -12.1829 -11.5046
-10.8271 -10.1822 -9.5753 -8.9972 -8.5062 -8.0886
-7.7277 -7.4214 -7.0957 -6.7263 -6.2865 -5.7714
-5.2453 -4.7377 -4.2486 -3.8245 -3.4468 -3.0580
-2.7026 -2.3861 -2.0641 -1.8395 -1.6957 -1.5351
-1.4145 -1.2632 -0.9774 -0.6173 -0.1635 0.4295
1.0911 1.8836 2.7921 3.7377 4.7232 5.6651
6.5717 7.4041 8.1419 8.8777 9.5635 10.2549
10.9620 11.6236 12.3308 13.0240 13.7172 14.4642
15.2298 16.0037 16.7257 17.4476 18.1362 18.7357
19.2424 19.5996 19.8381 19.9430 19.8864 19.6730
19.2647 18.7042 18.0111 17.2464 16.4660 15.6179
14.7828 13.9281 13.0345 12.1864 11.3438 10.5782
9.8962 9.2634 8.6834 8.1350 7.6849 7.2664
6.9509 6.7459 6.5390 6.4137 6.3154 6.2755
6.3302 6.4073 6.5725 6.8462 7.2016 7.5840
7.9672 8.3709 8.7310 9.0400 9.3212 9.5912
9.9188 10.2696 10.6603 11.0900 11.4584 11.7878
12.0783 12.3400 12.5896 12.8337 13.0805 13.3274
13.5798 13.7951 13.9872 14.1450 14.2359 14.2759
14.2703 14.2527 14.1952 14.1024 13.9196 13.5995
13.2144 12.6994 12.0684 11.3965 10.7043 10.0176
9.3309 8.6304 7.9678 7.3322 6.6872 6.0897
5.4865 4.9381 4.4361 3.8840 3.3634 2.8317
2.2397 1.5910 0.8941 0.1611 -0.6360 -1.4962
-2.4075 -3.3744 -4.4053 -5.4883 -6.5396 -7.5864
-8.6312 -9.5694 -10.4518 -11.2220 -11.8892 -12.5379
-13.0733 -13.5883 -14.1237 -14.6703 -15.2855 -15.9749
-16.7535 -17.5543 -18.3867 -19.2005 -19.9280 -20.5618
-21.1083 -21.5983 -21.9611 -22.2329 -22.3610 -22.3192
-22.1800 -21.8914 -21.5230 -21.1239 -20.7351 -20.3815
-20.0391 -19.7384 -19.4396 -19.1417 -18.8550 -18.5710
-18.2620 -17.8973 -17.5214 -17.1354 -16.6900 -16.2427
-15.8028 -15.3360 -14.8795 -14.3793 -13.8754 -13.4281
-12.9622 -12.4667 -11.9925 -11.4580 -10.8223 -10.1560
-9.4043 -8.6230 -7.8453 -7.0278 -6.2065 -5.3528
-4.4601 -3.5358 -2.5902 -1.6400 -0.6934 0.2447
1.1709 2.0367 2.8264 3.4945 4.0522 4.5237
4.8383 5.0897 5.2689 5.3682 5.4424 5.4415
5.4072 5.3125 5.1966 5.0574 4.8690 4.6565
4.4153 4.2557 4.1211 3.9114 3.6256 3.2656
2.7775 2.1020 1.3689 0.5792 -0.2318 -0.9695
-1.6896 -2.3549 -2.9943 -3.6188 -4.2331 -4.8501
-5.3976 -5.9080 -6.3534 -6.7441 -7.1050 -7.4493
-7.8307 -8.1907 -8.5591 -8.9460 -9.3385 -9.7153
-10.0354 -10.3166 -10.5346 -10.7109 -10.8538 -10.9614
-11.1498 -11.3493 -11.5247 -11.7687 -11.9914 -12.2234
-12.4776 -12.7541 -13.0548 -13.3127 -13.5549 -13.7860
-13.9585 -14.0857 -14.1979 -14.2072 -14.1153 -13.9631
-13.7654 -13.5149 -13.0926 -12.5479 -11.9577 -11.2339
-10.3681 -9.4151 -8.4101 -7.3707 -6.3082 -5.2290
-4.1544 -3.1531 -2.2363 -1.4234 -0.6652 0.0930
0.8038 1.5369 2.2737 3.0050 3.7798 4.5788
5.3880 6.1805 6.9786 7.7497 8.5051 9.2827
10.0548 10.7907 11.4950 12.2142 12.9306 13.6247
14.3040 14.9889 15.6552 16.2481 16.7892 17.2717
17.7088 18.0652 18.3064 18.5004 18.5793 18.6183
18.6443 18.5765 18.5608 18.5339 18.5088 18.4866
18.4235 18.4059 18.2862 18.1257 17.9373 17.6645
17.3342 16.9472 16.5761 16.1464 15.6769 15.1916
14.6450 14.0177 13.3116 12.6045 11.8612 11.1383
10.4776 9.7557 9.0486 8.3536 7.6038 6.8837
6.1386 5.4287 4.7272 3.9635 3.2100 2.4677
1.7429 1.0247 0.3353 -0.3329 -1.0279 -1.7591
-2.4421 -3.0851 -3.7217 -4.2868 -4.8668 -5.4013
-5.8606 -6.3301 -6.7876 -7.2349 -7.6496 -8.0561
-8.3975 -8.6639 -8.9014 -9.0461 -9.1361 -9.1565
-9.0879 -8.9904 -8.8289 -8.6201 -8.3482 -7.9817
-7.5733 -7.1520 -6.7678 -6.4208 -6.1145 -5.8491
-5.6143 -5.4185 -5.2320 -5.0566 -4.8802 -4.7151
-4.4960 -4.1750 -3.7945 -3.3296 -2.8229 -2.2679
-1.7232 -1.2880 -0.9159 -0.6477 -0.4871 -0.4351
-0.4815 -0.5585 -0.6624 -0.6995 -0.6717 -0.5946
-0.3961 -0.1798 0.0364 0.2294 0.3287 0.4308
0.5079 0.5728 0.6387 0.6156 0.5423 0.4374
0.3047 0.2045 0.1619 0.1860 0.2231 0.2278
0.2232 0.1517 0.0153 -0.1238 -0.2834 -0.4764
-0.6741 -0.8847 -1.1148 -1.4146 -1.8238 -2.2775
-2.7452 -3.1795 -3.5720 -3.8865 -4.0712 -4.1862
-4.2076 -4.1231 -3.9533 -3.6869 -3.3408 -2.9223
-2.4601 -1.9897 -1.4644 -0.8918 -0.3016 0.3461
0.9725 1.5358 2.0703 2.5649 3.0270 3.4103
3.7193 4.0005 4.2900 4.6065 4.8663 5.1132
5.4064 5.6422 5.8176 5.8964 5.8649 5.7656
5.5866 5.3871 5.1319 4.8758 4.6633 4.4165
4.1567 3.8291 3.4561 3.0821 2.6460 2.2117
1.7524 1.2086 0.5748 -0.1406 -0.8755 -1.6494
-2.3918 -3.0896 -3.7791 -4.4147 -5.0865 -5.7982
-6.5155 -7.2857 -8.0402 -8.7649 -9.5054 -10.2320
-10.9325 -11.6313 -12.2957 -12.9091 -13.5289 -14.0931
-14.6304 -15.1556 -15.6066 -16.0742 -16.5132 -16.9159
-17.2583 -17.4503 -17.6099 -17.7139 -17.6777 -17.5551
-17.4308 -17.2860 -17.0262 -16.7246 -16.3710 -15.9747
-15.5080 -14.9141 -14.2895 -13.5657 -12.7667 -11.9204
-11.0008 -10.0626 -9.1068 -8.1361 -7.1534 -6.1512
-5.1323 -4.0874 -2.9989 -1.9057 -0.8246 0.2583
1.3663 2.4650 3.5090 4.5465 5.5728 6.5500
7.5299 8.5052 9.4239 10.3306 11.2400 12.1401
12.9604 13.7112 14.4164 15.0317 15.5551 15.9207
16.1388 16.1611 15.9671 15.6192 15.1515 14.5994
13.9517 13.2966 12.6062 11.9353 11.2644 10.5601
9.9291 9.2498 8.5622 7.8189 7.0469 6.2563
5.4285 4.6305 3.7916 2.9704 2.2206 1.6147
1.0171 0.4984 0.1189 -0.2375 -0.4639 -0.6615
-0.8313 -0.9807 -1.1663 -1.3129 -1.4391 -1.5439
-1.6358 -1.7109 -1.7489 -1.7693 -1.7341 -1.6422
-1.4844 -1.2292 -0.9304 -0.5982 -0.2260 0.1489
0.5655 1.0026 1.4082 1.8879 2.3770 2.9022
3.5277 4.1494 4.8083 5.4690 6.1112 6.7199
7.2600 7.7463 8.1472 8.4441 8.5889 8.5871
8.4609 8.1881 7.8141 7.3548 6.8138 6.2710
5.7523 5.2521 4.7844 4.3279 3.8509 3.3285
2.7448 2.0767 1.3743 0.6440 -0.1104 -0.8333
-1.5218 -2.1463 -2.7578 -3.3007 -3.7786 -4.2277
-4.5831 -4.9255 -5.2512 -5.6112 -6.0214 -6.4157
-6.8379 -7.2267 -7.5840 -7.9338 -8.2994 -8.7086
-9.1234 -9.5623 -9.9548 -10.2861 -10.5385 -10.6712
-10.7695 -10.8085 -10.8113 -10.8474 -10.8753 -10.8864
-10.8650 -10.7407 -10.5467 -10.3221 -10.0159 -9.6243
-9.1742 -8.6647 -8.1256 -7.5827 -7.0407 -6.5517
-6.1304 -5.7165 -5.2850 -4.8488 -4.3867 -3.8967
-3.4151 -2.8880 -2.3665 -1.8227 -1.2297 -0.7109
-0.1347 0.4036 0.8694 1.3575 1.7956 2.2577
2.6855 3.1393 3.6664 4.2009 4.7827 5.3720
6.0216 6.7380 7.4535 8.2051 8.9614 9.7484
10.5093 11.1301 11.7036 12.1797 12.5407 12.8618
13.1012 13.3007 13.4891 13.6255 13.7118 13.7573
13.7648 13.7462 13.6813 13.5440 13.3370 13.0735
12.7534 12.3906 12.0305 11.6983 11.3624 11.0312
10.7444 10.4354 10.1144 9.7766 9.4036 9.0250
8.5490 8.0210 7.4874 6.8982 6.2653 5.5972
4.8994 4.1867 3.4880 2.7558 2.0014 1.2962
0.5798 -0.1133 -0.7898 -1.5173 -2.1780 -2.8573
-3.5690 -4.2167 -4.8588 -5.4620 -6.0355 -6.6312
-7.2399 -7.8449 -8.4871 -9.1663 -9.8214 -10.4348
-11.0111 -11.5428 -12.0188 -12.4735 -12.9096 -13.3429
-13.7030 -13.9879 -14.2504 -14.4258 -14.5548 -14.6299
-14.6828 -14.7171 -14.7218 -14.7514 -14.7783 -14.7496
-14.6493 -14.4609 -14.1621 -13.7761 -13.3074 -12.8110
-12.2486 -11.6788 -11.1740 -10.6478 -10.2015 -9.8024
-9.3987 -9.0461 -8.7065 -8.4114 -8.1385 -7.8722
-7.6374 -7.4147 -7.2448 -7.0509 -6.8541 -6.6982
-6.4801 -6.2992 -6.1637 -6.0245 -5.9177 -5.8240
-5.7451 -5.6690 -5.6170 -5.6059 -5.6216 -5.6958
-5.8063 -5.9417 -6.1199 -6.2581 -6.3685 -6.4697
-6.5281 -6.5801 -6.5931 -6.5810 -6.5828 -6.5550
-6.5540 -6.6115 -6.6672 -6.7303 -6.7952 -6.7989
-6.7711 -6.6690 -6.4537 -6.2161 -5.8978 -5.5164
-5.0923 -4.6218 -4.1263 -3.5407 -2.9598 -2.4067
-1.8212 -1.2718 -0.7660 -0.2427 0.2288 0.6751
1.1345 1.6022 2.1608 2.7213 3.2883 3.8869
4.4585 5.0144 5.5396 6.0231 6.4101 6.7210
6.9957 7.1757 7.3474 7.5376 7.7158 7.8968
8.0583 8.1965 8.3246 8.4861 8.6504 8.8063
8.9761 9.1710 9.3714 9.5413 9.7334 9.8893
9.9617 10.0174 10.0378 9.9664 9.8875 9.8402
9.7808 9.7335 9.7428 9.8393 9.9414 10.0008
10.0036 9.9517 9.8375 9.6640 9.4376 9.1657
8.8697 8.4921 8.1153 7.7117 7.2867 6.8942
6.4942 6.1138 5.6573 5.2415 4.8231 4.3609
3.9360 3.4776 3.0312 2.5821 2.1051 1.5855
1.0649 0.5592 0.0683 -0.3706 -0.7844 -1.1899
-1.5444 -1.7810 -1.9582 -2.0520 -1.9990 -1.8858
-1.6835 -1.3763 -1.0757 -0.7304 -0.3379 0.0222
0.4258 0.8304 1.1812 1.5441 1.8466 2.0962
2.3069 2.4554 2.5965 2.7180 2.8350 2.9528
3.0494 3.1115 3.1598 3.1877 3.1895 3.2081
3.2007 3.1803 3.1645 3.1247 3.1293 3.1766
3.1887 3.2008 3.2602 3.2853 3.2881 3.3252
3.3382 3.3698 3.4654 3.6102 3.8412 4.1521
4.5215 4.9520 5.3344 5.6796 5.9663 6.1455
6.3023 6.3849 6.4230 6.4759 6.5520 6.6457
6.7998 7.0373 7.3037 7.6025 7.9162 8.2595
8.5454 8.8071 9.0548 9.2581 9.4910 9.6543
9.8010 9.9281 9.9773 9.9653 9.9198 9.8771
9.7769 9.6498 9.4689 9.2332 8.9001 8.4732
8.0176 7.4432 6.8299 6.1961 5.5001 4.7420
3.9644 3.2016 2.4342 1.7512 1.0887 0.4512
-0.1316 -0.7004 -1.1978 -1.6190 -1.9735 -2.2602
-2.4727 -2.6499 -2.8132 -2.9691 -3.1426 -3.3143
-3.4785 -3.6456 -3.8163 -4.0056 -4.2227 -4.4315
-4.6356 -4.7952 -4.9093 -5.0958 -5.3204 -5.5431
-5.7955 -6.0859 -6.4023 -6.7215 -7.0621 -7.3590
-7.6467 -7.9306 -8.1876 -8.4938 -8.7787 -9.0905
-9.3958 -9.6593 -9.9562 -10.2355 -10.5195 -10.7765
-11.0215 -11.2562 -11.4409 -11.6227 -11.7796 -11.9354
-12.1136 -12.3326 -12.5590 -12.7279 -12.9199 -13.1352
-13.3421 -13.5889 -13.8321 -14.0464 -14.2942 -14.5271
-14.7637 -15.0077 -15.2332 -15.5097 -15.7649 -16.0442
-16.3328 -16.5759 -16.7809 -16.8997 -16.9851 -17.0082
-16.9665 -16.8616 -16.7196 -16.5321 -16.3252 -16.1600
-16.0180 -15.9168 -15.8389 -15.7479 -15.6366 -15.5252
-15.3897 -15.2421 -15.0714 -14.8941 -14.7336 -14.5582
-14.3911 -14.1860 -13.9652 -13.7239 -13.4390 -13.1773
-12.9146 -12.6205 -12.3189 -11.9634 -11.5310 -11.0169
-10.3970 -9.7177 -8.9456 -8.0965 -7.2409 -6.2814
-5.2839 -4.2872 -3.2933 -2.3979 -1.5218 -0.7145
0.0288 0.7266 1.3308 1.9024 2.4128 2.8731
3.2433 3.5245 3.7760 3.9672 4.1120 4.2206
4.3115 4.3978 4.4582 4.4972 4.5046 4.5000
4.4313 4.2912 4.1873 4.0880 4.0092 3.9340
3.8032 3.6621 3.4831 3.2604 3.0377 2.8094
2.5273 2.2174 1.9205 1.5734 1.2440 0.9499
0.6696 0.4878 0.3291 0.1881 0.1111 0.0656
0.0517 0.0406 0.0462 0.0360 -0.0661 -0.2498
-0.4818 -0.7518 -1.0107 -1.2529 -1.5043 -1.7326
-1.9720 -2.1715 -2.3125 -2.4137 -2.4480 -2.4489
-2.3960 -2.3366 -2.3115 -2.2744 -2.2354 -2.2140
-2.1500 -2.0544 -1.8753 -1.5950 -1.2442 -0.8081
-0.3422 0.2387 0.8994 1.6028 2.3860 3.1794
4.0007 4.7960 5.5068 6.1480 6.6816 7.1234
7.5391 7.8871 8.1896 8.4699 8.6926 8.9033
9.1334 9.3747 9.6513 9.9826 10.3027 10.6470
11.0006 11.2920 11.5425 11.7328 11.8627 11.8924
11.8618 11.8034 11.7059 11.6382 11.6085 11.6308
11.7116 11.8424 12.0252 12.2108 12.3668 12.5088
12.5756 12.5951 12.6331 12.6684 12.7352 12.7965
12.8680 12.9682 13.1074 13.2949 13.4926 13.7375
13.9909 14.2108 14.4280 14.6294 14.8178 14.9783
15.1157 15.2363 15.3087 15.3542 15.3718 15.4071
15.4730 15.5074 15.5195 15.4666 15.2819 14.9776
14.6333 14.2464 13.8130 13.3194 12.7543 12.1891
11.5619 10.9763 10.4585 9.9723 9.6030 9.2940
9.0444 8.7502 8.3958 7.9791 7.5059 7.0660
6.5557 6.0565 5.6073 5.1517 4.7184 4.2888
3.8897 3.5214 3.2402 3.0184 2.7865 2.5675
2.3086 2.0200 1.6887 1.3222 0.9492 0.5511
0.1734 -0.2033 -0.5438 -0.8129 -1.0328 -1.1794
-1.2843 -1.3845 -1.4903 -1.6545 -1.9069 -2.2252
-2.5880 -3.0668 -3.6143 -4.1070 -4.6062 -5.0962
-5.5388 -5.9712 -6.3675 -6.7358 -7.1237 -7.5292
-7.9338 -8.3625 -8.8265 -9.2951 -9.7405 -10.1738
-10.5979 -11.0043 -11.3745 -11.6808 -11.9638 -12.2524
-12.5317 -12.7915 -13.0420 -13.3176 -13.5709 -13.7871
-13.9820 -14.1369 -14.2937 -14.4635 -14.6092 -14.7530
-14.9395 -15.1205 -15.2791 -15.4489 -15.6141 -15.7524
-15.8887 -16.0558 -16.2265 -16.4056 -16.5550 -16.6496
-16.7099 -16.7043 -16.6830 -16.6236 -16.5549 -16.5706
-16.6142 -16.6551 -16.7107 -16.7710 -16.8072 -16.7998
-16.7376 -16.6234 -16.4434 -16.1993 -15.9525 -15.6351
-15.2323 -14.8017 -14.3183 -13.8069 -13.2390 -12.6303
-12.0057 -11.3515 -10.6871 -10.0013 -9.2904 -8.6028
-7.9811 -7.4131 -6.9213 -6.4490 -5.9664 -5.5098
-5.0728 -4.6273 -4.1763 -3.7467 -3.3012 -2.8678
-2.4549 -2.0865 -1.7839 -1.5093 -1.2800 -1.0619
-0.8207 -0.5116 -0.1534 0.2270 0.6437 1.0186
1.3481 1.6654 1.9494 2.1944 2.4273 2.6519
2.8320 2.9313 3.0269 3.1698 3.3099 3.5150
3.7869 4.0820 4.3808 4.6750 4.9599 5.2049
5.5037 5.8313 6.1626 6.4856 6.7603 7.0405
7.3041 7.5648 7.7792 8.0214 8.3091 8.6116
8.9411 9.2557 9.6111 9.9173 10.2180 10.4797
10.6820 10.8741 10.9400 10.9837 10.9809 10.9892
11.0004 10.9540 10.8974 10.7313 10.5857 10.4372
10.2711 10.1579 10.0419 9.9250 9.7738 9.6077
9.4193 9.2328 9.0352 8.7995 8.5796 8.3420
8.0572 7.6990 7.2406 6.7200 6.1521 5.6019
5.0414 4.4215 3.8184 3.2143 2.6260 2.0692
1.5022 0.9084 0.3525 -0.1653 -0.7016 -1.1869
-1.6880 -2.2011 -2.6735 -3.1634 -3.6014 -3.9791
-4.3140 -4.6156 -4.8615 -5.0313 -5.2150 -5.3626
-5.4915 -5.6029 -5.6567 -5.7383 -5.8042 -5.8441
-5.8942 -5.9136 -5.9099 -5.8821 -5.8570 -5.8069
-5.6871 -5.5433 -5.3419 -5.1266 -4.8983 -4.6264
-4.3907 -4.1670 -3.9787 -3.7791 -3.5545 -3.3383
-3.0822 -2.8474 -2.6590 -2.5050 -2.3862 -2.2933
-2.2432 -2.2191 -2.2627 -2.3703 -2.4816 -2.6533
-2.8797 -3.1312 -3.4253 -3.7352 -4.1222 -4.5685
-5.0223 -5.5178 -5.9948 -6.4244 -6.8800 -7.3570
-7.8246 -8.2802 -8.7257 -9.1738 -9.6044 -10.0489
-10.5073 -10.9796 -11.4473 -11.8871 -12.3761 -12.8503
-13.3041 -13.7448 -14.1475 -14.4797 -14.7182 -14.9038
-14.9808 -15.0439 -15.0374 -14.9436 -14.8545 -14.7181
-14.6095 -14.4555 -14.2782 -14.0870 -13.8430 -13.5970
-13.2862 -12.9679 -12.6059 -12.1466 -11.6316 -11.0414
-10.3342 -9.5399 -8.6778 -7.7276 -6.7393 -5.7222
-4.6912 -3.6584 -2.6413 -1.6818 -0.7102 0.3486
1.3824 2.3966 3.4536 4.4270 5.3875 6.3331
7.2240 8.1111 8.9342 9.7555 10.5229 11.1994
11.8388 12.3742 12.8503 13.2818 13.6419 13.9685
14.2237 14.4158 14.5699 14.6636 14.7370 14.7889
14.8205 14.8938 14.9950 15.1036 15.1815 15.2326
15.2651 15.2215 15.1760 15.0842 14.9877 14.8958
14.7409 14.6138 14.4208 14.2510 14.0877 13.8789
13.6942 13.4743 13.2553 12.9900 12.7069 12.3553
11.9182 11.5090 11.0692 10.5857 10.0512 9.4972
8.9516 8.3865 7.8297 7.2980 6.8081 6.3339
5.8755 5.4533 5.0292 4.5792 4.0920 3.6141
3.1131 2.5804 2.0831 1.5903 1.1598 0.8099
0.5232 0.3163 0.1502 0.0231 -0.0595 -0.0975
-0.0660 0.0055 0.0668 0.1355 0.1939 0.2589
0.3192 0.3434 0.3759 0.3777 0.3907 0.4808
0.5643 0.7026 0.8882 1.0989 1.3800 1.5972
1.8394 2.0983 2.3211 2.5688 2.7804 2.9967
3.1823 3.3233 3.4495 3.5108 3.5229 3.5684
3.5888 3.5851 3.6092 3.6352 3.7058 3.8441
4.0566 4.2542 4.4519 4.6422 4.8723 5.1368
5.3335 5.5034 5.5878 5.6389 5.5990 5.5016
5.4431 5.3633 5.3763 5.4135 5.4812 5.5815
5.6659 5.7671 5.8005 5.8469 5.8274 5.7374
5.6391 5.4099 5.1297 4.7743 4.3911 3.9995
3.5735 3.2135 2.8535 2.4944 2.1353 1.7687
1.4115 1.0023 0.5745 0.1356 -0.3145 -0.7441
-1.1830 -1.6219 -2.1369 -2.6909 -3.1808 -3.7098
-4.2507 -4.7490 -5.2176 -5.6380 -6.0314 -6.3590
-6.6643 -7.0076 -7.3083 -7.6349 -8.0487 -8.4784
-8.9284 -9.3543 -9.7635 -10.2442 -10.7323 -11.2417
-11.8356 -12.4137 -12.9584 -13.4725 -13.9235 -14.3308
-14.7104 -15.0889 -15.4406 -15.7775 -16.0827 -16.3453
-16.5792 -16.7805 -16.9856 -17.0923 -17.1210 -17.1238
-17.0765 -17.0375 -16.9261 -16.7869 -16.6180 -16.3554
-16.1002 -15.8079 -15.5109 -15.2251 -14.9457 -14.7156
-14.4325 -14.1096 -13.7449 -13.3338 -12.9589 -12.5830
-12.2749 -12.0541 -11.8378 -11.6290 -11.4555 -11.3024
-11.1298 -10.9896 -10.8281 -10.6036 -10.2880 -9.8018
-9.2209 -8.5787 -7.9291 -7.2498 -6.5297 -5.8105
-5.0487 -4.2951 -3.5676 -2.8196 -2.0383 -1.3043
-0.5786 0.1137 0.7392 1.3683 1.9335 2.5320
3.0962 3.6066 4.1486 4.7016 5.2779 5.7725
6.2551 6.6931 7.0727 7.3937 7.6554 7.9673
8.2290 8.5259 8.8776 9.1718 9.5012 9.8632
10.2121 10.5471 10.8431 11.1197 11.3508 11.5354
11.6533 11.6969 11.6645 11.5114 11.3379 11.0929
10.8062 10.5399 10.2095 9.9163 9.6481 9.3911
9.2148 9.0598 8.8659 8.6859 8.4975 8.2832
8.0865 7.8452 7.5696 7.2709 6.9498 6.6343
6.3225 5.9857 5.6062 5.2879 4.9668 4.5817
4.2291 3.8394 3.4348 3.0535 2.6368 2.2322
1.8453 1.5001 1.2097 0.9647 0.7550 0.5240
0.3078 0.0943 -0.1033 -0.2248 -0.3585 -0.5088
-0.6888 -0.8771 -1.0163 -1.2177 -1.4200 -1.6232
-1.8783 -2.1205 -2.3720 -2.6123 -2.8684 -3.1264
-3.3231 -3.5179 -3.7026 -3.8594 -4.0116 -4.1767
-4.3419 -4.4746 -4.6332 -4.8058 -4.9766 -5.1529
-5.2939 -5.4266 -5.5695 -5.6827 -5.7857 -5.9193
-6.0288 -6.0983 -6.1549 -6.2208 -6.3052 -6.4500
-6.6291 -6.7877 -6.9594 -7.0781 -7.1459 -7.1644
-7.1560 -7.1124 -6.9667 -6.7960 -6.5101 -6.1798
-5.9301 -5.6675 -5.4346 -5.2323 -4.9993 -4.7673
-4.5427 -4.3311 -4.1465 -3.9785 -3.8745 -3.7474
-3.6138 -3.5256 -3.4402 -3.3743 -3.2722 -3.1822
-3.0912 -3.0086 -2.9492 -2.8982 -2.9111 -2.8629
-2.7320 -2.6271 -2.5093 -2.3515 -2.1585 -1.9302
-1.6898 -1.4383 -1.2175 -0.9066 -0.4927 -0.1215
0.2497 0.5810 0.8650 1.1582 1.4403 1.6955
1.8867 2.0324 2.1224 2.1735 2.2626 2.3303
2.3823 2.4250 2.4130 2.3703 2.2970 2.1727
1.9713 1.7022 1.3877 1.0777 0.7994 0.5646
0.3827 0.1601 -0.0970 -0.3902 -0.7363 -1.1038
-1.5130 -1.9166 -2.3305 -2.7972 -3.2426 -3.6314
-4.0212 -4.3979 -4.7264 -5.0354 -5.3240 -5.4928
-5.6125 -5.7424 -5.8083 -5.8714 -5.8834 -5.8296
-5.7062 -5.5029 -5.2774 -5.0111 -4.7290 -4.4302
-4.1852 -3.9875 -3.7889 -3.6979 -3.6747 -3.6831
-3.7267 -3.7378 -3.7350 -3.7377 -3.7795 -3.8574
-3.9855 -4.1970 -4.4411 -4.7185 -4.9950 -5.2715
-5.5193 -5.6910 -5.9248 -6.1568 -6.2904 -6.3989
-6.4787 -6.5464 -6.5696 -6.5965 -6.6271 -6.6039
-6.6262 -6.6800 -6.7310 -6.6967 -6.6400 -6.5760
-6.3941 -6.2187 -6.0619 -5.8753 -5.6563 -5.3807
-5.0420 -4.6995 -4.3785 -4.0416 -3.6889 -3.2723
-2.8649 -2.5067 -2.1800 -1.8636 -1.5184 -1.2344
-0.9597 -0.6757 -0.4242 -0.1959 0.0212 0.2625
0.5149 0.8221 1.1367 1.4346 1.7445 2.0953
2.4916 2.8618 3.2340 3.6293 4.0274 4.3735
4.6937 5.0129 5.3145 5.5874 5.8110 6.0180
6.1943 6.3948 6.6629 6.9451 7.2244 7.5334
7.8146 8.0457 8.2749 8.4252 8.5598 8.7083
8.7816 8.8596 8.9431 8.9877 8.9728 8.9302
8.8856 8.7743 8.6444 8.4904 8.3178 8.1907
8.0543 7.9559 7.9021 7.8177 7.7231 7.6377
7.5561 7.5069 7.4781 7.4188 7.3900 7.3427
7.2518 7.1757 7.0987 6.9697 6.7869 6.6357
6.4390 6.1819 5.9407 5.6651 5.3348 5.0443
4.8179 4.6286 4.5071 4.4254 4.3382 4.2018
4.0831 3.9801 3.8372 3.7008 3.5727 3.4363
3.3482 3.3334 3.3835 3.5125 3.6471 3.8308
4.0684 4.3125 4.5816 4.8405 5.1393 5.4641
5.7583 6.0256 6.3142 6.5768 6.7652 6.9100
7.0278 7.1411 7.1745 7.1986 7.2645 7.3369
7.3564 7.2729 7.2061 7.1022 6.9732 6.8257
6.6392 6.5167 6.4212 6.3172 6.1586 6.0055
5.8654 5.7123 5.5768 5.3996 5.2381 5.0145
4.7482 4.4726 4.1636 3.8889 3.5716 3.2719
2.9861 2.7550 2.5992 2.4210 2.2781 2.1853
2.1464 2.0619 1.9237 1.7613 1.5832 1.4143
1.2593 1.1387 1.0134 0.9439 0.8316 0.6868
0.6200 0.5690 0.5932 0.7101 0.9328 1.2289
1.5527 1.8961 2.2237 2.5364 2.8343 3.1702
3.5099 3.8198 4.1233 4.3776 4.6198 4.7961
4.8945 4.9817 5.0133 5.0263 5.0365 5.0263
4.9892 4.8742 4.6793 4.4882 4.3221 4.1207
3.8758 3.5733 3.2884 3.0277 2.7131 2.3772
1.9986 1.5968 1.1857 0.7468 0.3497 -0.0141
-0.3630 -0.7351 -1.1109 -1.4366 -1.8077 -2.2142
-2.6290 -3.0400 -3.4251 -3.8418 -4.2714 -4.7168
-5.1418 -5.5658 -6.0734 -6.5634 -7.0023 -7.4004
-7.7465 -8.0972 -8.4480 -8.7523 -9.0279 -9.2933
-9.5411 -9.7805 -9.9865 -10.1683 -10.3428 -10.5293
-10.7390 -10.9236 -11.1027 -11.2493 -11.3662 -11.4599
-11.5165 -11.5768 -11.6019 -11.6269 -11.6594 -11.7308
-11.8301 -11.8839 -11.9822 -12.1196 -12.2764 -12.4675
-12.6401 -12.7765 -12.9008 -12.9621 -12.9583 -12.9231
-12.8247 -12.7263 -12.6261 -12.4869 -12.3922 -12.3402
-12.2808 -12.2520 -12.2539 -12.2724 -12.3373 -12.4311
-12.5146 -12.6092 -12.7354 -12.8291 -12.8820 -12.8550
-12.7585 -12.6527 -12.4820 -12.2871 -12.0458 -11.7405
-11.4203 -11.0853 -10.8032 -10.5545 -10.3021 -10.0450
-9.7935 -9.5365 -9.2701 -9.0084 -8.6947 -8.3662
-8.0127 -7.6693 -7.2953 -6.8573 -6.4815 -6.0778
-5.6945 -5.3772 -5.0802 -4.8556 -4.6320 -4.3666
-4.0269 -3.6102 -3.2028 -2.8131 -2.4437 -2.0753
-1.6921 -1.3914 -1.1399 -0.8903 -0.7223 -0.6183
-0.5367 -0.4903 -0.4680 -0.4884 -0.5273 -0.5180
-0.4800 -0.4224 -0.3361 -0.2164 -0.1171 -0.0679
-0.0280 -0.0140 -0.0354 -0.0799 -0.1439 -0.2348
-0.3452 -0.4659 -0.5512 -0.6060 -0.6588 -0.6458
-0.6273 -0.5688 -0.4370 -0.2978 -0.1382 0.0150
0.2071 0.4131 0.6108 0.8168 1.0219 1.2669
1.4831 1.6520 1.8432 2.0455 2.2784 2.5392
2.8102 3.0895 3.3809 3.7205 4.0351 4.2579
4.4360 4.6198 4.7507 4.8193 4.8695 4.9261
5.0115 5.1219 5.2175 5.2825 5.3577 5.4430
5.5544 5.6649 5.7864 5.9071 5.9971 6.1131
6.2588 6.4110 6.5168 6.5827 6.6765 6.7526
6.7981 6.7944 6.7081 6.5856 6.4028 6.2209
6.0474 5.9073 5.8609 5.8322 5.8480 5.8823
5.9028 5.9603 6.0420 6.1311 6.1877 6.2230
6.2416 6.1794 6.0476 5.8546 5.5726 5.2524
4.9017 4.5314 4.1974 3.9106 3.6184 3.3140
3.0347 2.7619 2.5281 2.3221 2.1513 2.0168
1.8535 1.7060 1.6512 1.6865 1.7858 1.9612
2.1375 2.3111 2.4893 2.6127 2.7575 2.9106
2.9978 3.0582 3.0916 3.1018 3.1334 3.1399
3.1724 3.1882 3.1010 3.0156 2.9061 2.7614
2.6231 2.4886 2.3986 2.2947 2.1434 2.0210
1.8929 1.7370 1.5626 1.3984 1.2777 1.1348
0.9920 0.8407 0.6050 0.3712 0.1847 0.0279
-0.0900 -0.1976 -0.3182 -0.4128 -0.4370 -0.4472
-0.4230 -0.3608 -0.3218 -0.2309 -0.0898 0.0513
0.2127 0.3974 0.5839 0.7928 1.0285 1.2345
1.3997 1.4943 1.5435 1.6002 1.6642 1.7125
1.7032 1.6865 1.6708 1.5835 1.4583 1.3497
1.2273 1.0537 0.7939 0.4274 -0.0505 -0.6332
-1.2299 -1.8581 -2.5568 -3.2602 -3.9191 -4.5306
-5.1263 -5.6719 -6.1814 -6.6676 -7.1631 -7.6976
-8.1885 -8.6682 -9.1387 -9.5869 -10.0360 -10.4888
-10.9491 -11.3806 -11.7703 -12.1229 -12.4514 -12.7372
-12.9729 -13.1520 -13.3088 -13.4609 -13.6131 -13.7783
-13.9713 -14.2394 -14.5512 -14.9057 -15.2908 -15.6499
-15.9793 -16.2103 -16.3291 -16.4209 -16.3801 -16.2260
-16.1091 -15.8678 -15.5588 -15.3110 -15.0076 -14.7190
-14.4313 -14.0675 -13.7473 -13.4216 -13.0114 -12.5669
-12.0667 -11.5137 -10.9532 -10.3695 -9.7923 -9.2262
-8.6351 -8.0235 -7.3517 -6.6501 -5.9272 -5.1384
-4.3200 -3.4597 -2.6041 -1.7782 -0.9161 -0.0457
0.8118 1.6312 2.4394 3.2551 4.0513 4.8661
5.6252 6.3277 7.0125 7.6426 8.2801 8.8750
9.4290 9.9923 10.5045 10.9648 11.4093 11.8037
12.1239 12.4199 12.6361 12.7633 12.8923 13.0389
13.1651 13.3294 13.5001 13.6393 13.7554 13.8008
13.8658 13.8779 13.8825 13.8946 13.8083 13.7406
13.6478 13.5133 13.3704 13.2359 13.1143 12.9965
12.9074 12.7766 12.6161 12.4110 12.1827 11.9702
11.8032 11.6557 11.4451 11.2187 10.8623 10.4717
10.1478 9.8064 9.5150 9.2719 9.0872 8.9109
8.7439 8.6122 8.4693 8.3254 8.1343 7.8782
7.6221 7.3456 7.0598 6.8529 6.6951 6.6088
6.5615 6.5365 6.5968 6.6265 6.6767 6.8159
6.9801 7.2316 7.5351 7.8432 8.1485 8.4492
8.7935 9.2389 9.7530 10.2829 10.8424 11.4002
11.9792 12.5518 13.0752 13.5893 14.0913 14.5572
15.0072 15.4174 15.7636 16.0689 16.2833 16.4308
16.5199 16.5190 16.4615 16.3557 16.2267 15.9938
15.6496 15.2979 14.8850 14.4368 13.9886 13.4838
12.9762 12.5067 12.0770 11.6437 11.1816 10.7186
10.2156 9.6570 9.0576 8.4590 7.8661 7.2713
6.6449 6.0009 5.3931 4.7510 4.0922 3.4222
2.7374 2.0962 1.4726 0.8295 0.1419 -0.6171
-1.4514 -2.3273 -3.2414 -4.1610 -5.0945 -6.0660
-7.0014 -7.9173 -8.7960 -9.6126 -10.4005 -11.1883
-11.9919 -12.7834 -13.5787 -14.3275 -15.0522 -15.8066
-16.5611 -17.3053 -17.9864 -18.6517 -19.2595 -19.7541
-20.1754 -20.5039 -20.7423 -20.9140 -21.0569 -21.1571
-21.2629 -21.3723 -21.4224 -21.4401 -21.4530 -21.4790
-21.5310 -21.5662 -21.5588 -21.5374 -21.4492 -21.3416
-21.1987 -20.9713 -20.7356 -20.5026 -20.2994 -20.0860
-19.8623 -19.6683 -19.4614 -19.2535 -19.0911 -18.9435
-18.7951 -18.6549 -18.4777 -18.2800 -18.0508 -17.7817
-17.5060 -17.1998 -16.9130 -16.6810 -16.4212 -16.1669
-15.9627 -15.7632 -15.5813 -15.4366 -15.2964 -15.1229
-14.9688 -14.7878 -14.5688 -14.3303 -14.0046 -13.6399
-13.2399 -12.8316 -12.4196 -12.0168 -11.6475 -11.2503
-10.8559 -10.4708 -10.0940 -9.7061 -9.2672 -8.7967
-8.2548 -7.6859 -7.1365 -6.5723 -6.0350 -5.4875
-4.9558 -4.4352 -3.8904 -3.4172 -2.9578 -2.4753
-1.9955 -1.5046 -1.0332 -0.5562 -0.0950 0.3616
0.8302 1.2729 1.7499 2.2825 2.7948 3.3061
3.7924 4.2063 4.6303 4.9895 5.3050 5.6233
5.8609 6.0808 6.2933 6.4734 6.6209 6.7434
6.8539 6.9300 6.9875 6.9746 6.9300 6.8855
6.7500 6.5960 6.3863 6.1534 5.9660 5.7581
5.5930 5.4501 5.3480 5.2515 5.1541 5.1207
5.1170 5.1309 5.0883 5.0437 5.0131 4.9501
4.9055 4.8629 4.8258 4.7831 4.7432 4.7107
4.6606 4.5994 4.4584 4.3359 4.1763 3.9091
3.6836 3.3876 3.1027 2.8596 2.5849 2.3743
2.1757 2.0124 1.9057 1.8241 1.7768 1.7480
1.7221 1.6868 1.6293 1.5736 1.5003 1.4140
1.3352 1.2508 1.1886 1.1524 1.1060 1.0467
0.9854 0.9223 0.8639 0.7433 0.6134 0.4807
0.3434 0.2571 0.1495 0.0864 0.0261 -0.0843
-0.1688 -0.2560 -0.3748 -0.4666 -0.5213 -0.6104
-0.7115 -0.8711 -1.0846 -1.3230 -1.6190 -1.9020
-2.2148 -2.5126 -2.7891 -3.0926 -3.3329 -3.5769
-3.8414 -4.0734 -4.2738 -4.4603 -4.6505 -4.8203
-4.9715 -5.0745 -5.1014 -5.0958 -5.0531 -4.9863
-4.8768 -4.6569 -4.4221 -4.1826 -3.8857 -3.5841
-3.2955 -3.0022 -2.7173 -2.4241 -2.1605 -1.9749
-1.7448 -1.4951 -1.2279 -0.9448 -0.6441 -0.2646
0.0927 0.4936 0.8657 1.2026 1.5877 1.9116
2.2020 2.4823 2.7932 3.1050 3.4057 3.7527
4.1202 4.5564 5.0185 5.4352 5.9085 6.3882
6.8234 7.2178 7.5649 7.8693 8.1078 8.3268
8.4827 8.6516 8.8604 9.0757 9.2595 9.4135
9.6149 9.7467 9.8544 9.9463 10.0010 10.0641
10.0688 10.0085 9.8869 9.7218 9.5223 9.3191
9.0787 8.8106 8.6027 8.3708 8.0636 7.7138
7.3389 6.8963 6.3711 5.8357 5.2548 4.7212
4.2164 3.6439 3.1242 2.6129 2.1666 1.8372
1.4642 1.0540 0.6662 0.3135 -0.0335 -0.3555
-0.6274 -0.8463 -0.9382 -0.9716 -1.0532 -1.1330
-1.1274 -1.0912 -1.0161 -0.8444 -0.5836 -0.2495
0.1198 0.4901 0.8186 1.1137 1.3290 1.5044
1.7318 1.9684 2.1856 2.3758 2.5735 2.7443
2.8176 2.8881 3.0134 3.1341 3.1749 3.1601
3.1601 3.1480 3.1267 3.1212 3.1694 3.2335
3.3467 3.5360 3.6594 3.6771 3.6205 3.6075
3.5983 3.5203 3.4415 3.3839 3.3663 3.2559
3.1084 3.0425 2.9442 2.7809 2.6083 2.4505
2.2000 1.8697 1.5171 1.1375 0.8072 0.4759
0.1558 -0.1560 -0.5086 -0.8176 -1.1656 -1.5609
-1.9562 -2.3505 -2.7440 -3.1717 -3.5475 -3.9651
-4.4179 -4.7576 -4.9868 -5.0935 -5.1389 -5.1575
-5.1714 -5.2001 -5.1704 -5.1175 -5.0414 -4.9588
-4.9040 -4.8029 -4.7295 -4.6228 -4.4984 -4.4557
-4.4251 -4.3963 -4.3258 -4.2961 -4.2487 -4.1160
-4.0316 -3.9666 -3.9044 -3.8626 -3.7865 -3.6946
-3.6009 -3.4895 -3.3735 -3.2751 -3.1981 -3.0988
-3.0403 -3.0347 -3.0468 -3.0644 -3.0829 -3.1173
-3.1052 -3.1061 -3.0764 -3.0170 -3.0253 -3.0634
-3.1673 -3.2471 -3.3046 -3.4549 -3.6145 -3.7769
-3.9281 -4.0339 -4.1322 -4.2139 -4.2575 -4.2250
-4.1257 -4.0069 -3.8788 -3.7043 -3.4686 -3.2246
-2.9879 -2.7837 -2.6213 -2.4896 -2.3429 -2.1833
-2.0357 -1.8381 -1.6237 -1.4362 -1.2191 -0.9592
-0.6753 -0.3672 -0.0359 0.3576 0.7752 1.1947
1.6447 2.0762 2.4549 2.7992 3.2010 3.6167
4.0232 4.4631 4.8834 5.2574 5.5544 5.8847
6.2309 6.4833 6.7107 6.9093 7.0708 7.2675
7.5060 7.7055 7.8494 7.9784 8.0777 8.1519
8.1594 8.0954 8.0360 7.9488 7.8523 7.7548
7.6064 7.4709 7.3568 7.2102 7.0599 6.9077
6.7082 6.4298 6.0577 5.5938 5.0157 4.4069
3.7936 3.0763 2.2773 1.4932 0.7778 0.0698
-0.6680 -1.3815 -2.0033 -2.5767 -3.1363 -3.6930
-4.3027 -4.8919 -5.4830 -6.0806 -6.6355 -7.1663
-7.7017 -8.2158 -8.6835 -9.1502 -9.5808 -9.9863
-10.3751 -10.7500 -11.1388 -11.4923 -11.8254 -12.1205
-12.3645 -12.6234 -12.8638 -13.0874 -13.3184 -13.5179
-13.7156 -13.8946 -14.0784 -14.2482 -14.3354 -14.3456
-14.3149 -14.2954 -14.2490 -14.1887 -14.1014 -13.9502
-13.7850 -13.5994 -13.3544 -13.0825 -12.7994 -12.4821
-12.1285 -11.7397 -11.4278 -11.1485 -10.8525 -10.6001
-10.3347 -10.1082 -9.8929 -9.6526 -9.3964 -9.1106
-8.8480 -8.5603 -8.2457 -7.8893 -7.4411 -6.9614
-6.4779 -5.9953 -5.5666 -5.1685 -4.7973 -4.4214
-3.9853 -3.5890 -3.2206 -2.8503 -2.5098 -2.1497
-1.7831 -1.3999 -0.9767 -0.5749 -0.1573 0.3104
0.7688 1.2495 1.6792 1.9836 2.2239 2.4188
2.5775 2.7037 2.8077 2.8782 2.8680 2.8179
2.7743 2.7521 2.7261 2.7038 2.6937 2.6501
2.6241 2.6065 2.5796 2.6046 2.6566 2.6353
2.5453 2.4655 2.3922 2.3393 2.2874 2.2466
2.2317 2.2058 2.1696 2.1334 2.1112 2.0574
1.9841 1.8978 1.7707 1.7113 1.6900 1.6454
1.5814 1.5369 1.5536 1.5434 1.5536 1.6214
1.6836 1.7560 1.8182 1.8442 1.9054 2.0010
2.0252 2.0196 2.0103 1.9964 1.9927 1.9658
1.9612 1.9584 1.9891 2.0401 2.0615 2.0856
2.0550 2.0309 2.0207 2.0003 1.9994 2.0143
2.0811 2.1349 2.1767 2.2909 2.4514 2.5990
2.7512 2.9461 3.1224 3.2867 3.4945 3.7228
3.9697 4.2518 4.5952 4.9691 5.3413 5.7227
6.0827 6.4094 6.6869 6.9161 7.0794 7.2029
7.3059 7.2966 7.2437 7.1686 7.0146 6.9199
6.8735 6.8169 6.8170 6.8365 6.8448 6.8578
6.9135 6.9998 7.1010 7.2272 7.3358 7.3989
7.3767 7.2913 7.2236 7.1215 6.9415 6.7531
6.5175 6.2586 6.0693 5.8290 5.5088 5.2137
4.9057 4.5605 4.2070 3.8135 3.3792 2.9264
2.4689 2.0124 1.5160 0.9295 0.3217 -0.2156
-0.7278 -1.2558 -1.8274 -2.3879 -2.8741 -3.2991
-3.6471 -3.9690 -4.3003 -4.6139 -4.9350 -5.3721
-5.9038 -6.4448 -6.9496 -7.4098 -7.8496 -8.2412
-8.5957 -8.8100 -8.8926 -8.9576 -8.9789 -8.9455
-8.8434 -8.6995 -8.5779 -8.5167 -8.5371 -8.6030
-8.6187 -8.5649 -8.4971 -8.4192 -8.3393 -8.3152
-8.2558 -8.1054 -7.9106 -7.7463 -7.6256 -7.4215
-7.2554 -7.1477 -7.0382 -6.9129 -6.7412 -6.6252
-6.4442 -6.1807 -5.8577 -5.5329 -5.3241 -5.0828
-4.8434 -4.6058 -4.2931 -3.9368 -3.5767 -3.2324
-2.8519 -2.4687 -2.0603 -1.5991 -1.1741 -0.8076
-0.4614 -0.0772 0.3747 0.7691 1.1050 1.4939
1.8586 2.1917 2.5072 2.7959 3.0780 3.2775
3.3898 3.5021 3.6218 3.7295 3.8297 3.8743
3.8455 3.8112 3.8261 3.8168 3.8085 3.8159
3.7612 3.7473 3.7426 3.7436 3.7900 3.7612
3.7232 3.7622 3.8745 4.0202 4.1381 4.2281
4.3079 4.3868 4.4128 4.3878 4.3534 4.3729
4.4101 4.4017 4.4268 4.4129 4.3303 4.2413
4.1383 4.0334 3.8887 3.6715 3.4897 3.3811
3.2902 3.1900 3.0657 2.9330 2.7919 2.6954
2.6017 2.4932 2.4264 2.3726 2.3410 2.3271
2.3207 2.2873 2.2446 2.2084 2.1630 2.1685
2.1695 2.0878 2.0006 1.9273 1.8327 1.7306
1.5887 1.4875 1.3994 1.2361 1.1210 1.0088
0.8408 0.7917 0.8464 0.8566 0.8381 0.8632
0.9272 0.9727 1.0293 1.0961 1.1611 1.2734
1.4609 1.6298 1.7124 1.8210 1.9444 2.1115
2.3230 2.4530 2.5894 2.7871 2.9866 3.1898
3.3671 3.4887 3.5555 3.5713 3.6010 3.6326
3.6595 3.7170 3.6391 3.5083 3.4433 3.3023
3.1548 2.9748 2.7326 2.5284 2.4357 2.3856
2.1833 1.9077 1.7416 1.7277 1.6590 1.4642
1.2897 1.1311 0.9501 0.6801 0.3795 0.1419
-0.1272 -0.4594 -0.7971 -1.1219 -1.4346 -1.7204
-1.9728 -2.2363 -2.4869 -2.7170 -2.9425 -3.1522
-3.4008 -3.6217 -3.8490 -4.1051 -4.3046 -4.5607
-4.7899 -4.9458 -5.1035 -5.2121 -5.3392 -5.4700
-5.5507 -5.5841 -5.5943 -5.5971 -5.5544 -5.5033
-5.4374 -5.3400 -5.2602 -5.1414 -5.0207 -4.9808
-4.9335 -4.9065 -4.9093 -4.8304 -4.6801 -4.5047
-4.3469 -4.1418 -3.8829 -3.6639 -3.4569 -3.2620
-3.0208 -2.7850 -2.6514 -2.5753 -2.5762 -2.6105
-2.6504 -2.7014 -2.7376 -2.7710 -2.8202 -2.8424
-2.8591 -2.8702 -2.8480 -2.8582 -2.8117 -2.7496
-2.6688 -2.5305 -2.3792 -2.1983 -2.0619 -1.9607
-1.8772 -1.7472 -1.5941 -1.4298 -1.2285 -1.0614
-0.8712 -0.6605 -0.5129 -0.3700 -0.1473 0.0439
0.2174 0.4504 0.6554 0.8559 1.0499 1.2141
1.3737 1.5426 1.7412 1.9343 2.1227 2.3101
2.5421 2.8048 2.9922 3.1880 3.3560 3.4627
3.5927 3.6827 3.7031 3.6391 3.5445 3.4628
3.3747 3.3107 3.2077 3.0620 2.9377 2.8106
2.7280 2.6983 2.6556 2.5935 2.5387 2.4803
2.4089 2.3810 2.2985 2.0888 1.8893 1.7037
1.5070 1.3279 1.1256 0.8899 0.5772 0.2348
-0.1039 -0.4231 -0.7070 -1.0652 -1.4354 -1.8038
-2.1490 -2.4042 -2.6603 -2.9368 -3.2235 -3.5353
-3.8545 -4.1050 -4.2999 -4.5263 -4.7314 -4.9012
-5.0487 -5.1851 -5.3772 -5.5451 -5.6824 -5.8263
-5.9571 -6.0536 -6.1250 -6.2475 -6.3542 -6.4080
-6.4859 -6.6019 -6.6891 -6.7699 -6.8496 -6.9090
-6.9860 -7.0370 -7.0593 -7.0983 -7.1437 -7.1780
-7.1845 -7.1130 -7.0008 -6.8838 -6.7585 -6.6388
-6.4866 -6.3465 -6.2249 -6.0653 -5.9131 -5.7451
-5.5075 -5.2662 -5.0407 -4.8458 -4.6714 -4.4950
-4.3586 -4.2380 -4.0913 -3.9271 -3.8009 -3.7006
-3.6078 -3.4649 -3.2876 -3.1466 -2.9693 -2.7837
-2.6139 -2.4181 -2.1879 -1.9633 -1.7406 -1.5067
-1.3044 -1.1170 -0.9369 -0.7801 -0.6288 -0.4794
-0.3031 -0.0961 0.0737 0.2324 0.3670 0.5062
0.6732 0.8189 0.9943 1.1308 1.2746 1.4760
1.6254 1.7795 1.9085 1.9539 2.0004 2.0199
2.0217 2.0171 1.9893 1.9763 1.9559 1.9494
1.9624 1.9717 1.9513 1.9105 1.9003 1.8604
1.7676 1.7018 1.6331 1.5264 1.4346 1.3622
1.3019 1.2332 1.1562 1.0570 0.9827 0.9772
0.9828 0.9986 0.9782 0.9466 0.9188 0.8418
0.7611 0.6516 0.5189 0.4122 0.2972 0.2053
0.1385 0.0494 -0.0257 -0.0573 -0.0665 -0.0730
-0.0897 -0.1509 -0.2214 -0.2938 -0.3931 -0.4896
-0.6157 -0.7354 -0.8004 -0.9062 -1.0361 -1.1381
-1.2281 -1.3060 -1.3515 -1.3348 -1.2939 -1.2123
-1.0907 -0.9561 -0.8002 -0.6443 -0.4680 -0.2675
-0.0411 0.2169 0.4888 0.8127 1.2015 1.6043
2.0154 2.4274 2.8218 3.2477 3.6124 3.8871
4.1535 4.3558 4.5470 4.7019 4.7678 4.7920
4.8273 4.9154 5.0092 5.1011 5.1781 5.2273
5.2440 5.2310 5.1772 5.0817 4.9685 4.8423
4.7374 4.6335 4.5092 4.3756 4.2382 4.1111
3.9543 3.7734 3.6472 3.5804 3.5414 3.5210
3.4904 3.4478 3.4088 3.3624 3.3095 3.2529
3.1667 3.0757 3.0071 2.9134 2.8132 2.7055
2.5710 2.4031 2.1776 1.9502 1.7396 1.5540
1.3740 1.1801 0.9351 0.6892 0.4619 0.2216
0.0555 -0.1199 -0.3073 -0.5115 -0.7685 -1.0116
-1.2519 -1.4691 -1.6806 -1.9024 -2.1371 -2.3654
-2.5129 -2.6011 -2.6567 -2.6642 -2.6382 -2.5797
-2.4878 -2.3876 -2.3003 -2.2066 -2.0525 -1.8558
-1.6711 -1.4261 -1.1022 -0.7784 -0.4248 -0.0629
0.2851 0.6869 1.1110 1.5268 1.9574 2.3907
2.7953 3.1610 3.5229 3.8690 4.1539 4.4277
4.6950 4.9455 5.2035 5.4086 5.6146 5.8281
6.0063 6.1529 6.2142 6.2309 6.1734 6.0592
5.8866 5.6742 5.4988 5.2974 5.1100 4.9161
4.7426 4.6127 4.4299 4.2591 4.0504 3.7878
3.5372 3.2533 2.9861 2.6464 2.2530 1.8790
1.4930 1.1367 0.7813 0.5224 0.3535 0.2496
0.2496 0.2608 0.2766 0.3462 0.4455 0.5216
0.5801 0.5866 0.5820 0.6052 0.6117 0.6507
0.6637 0.6424 0.6804 0.7176 0.7352 0.7686
0.7659 0.7176 0.6647 0.5877 0.4486 0.2620
0.0579 -0.1369 -0.3466 -0.5907 -0.8087 -1.0073
-1.2096 -1.3692 -1.5269 -1.6745 -1.7663 -1.8730
-1.9899 -2.0994 -2.1978 -2.2998 -2.4112 -2.4687
-2.5280 -2.5846 -2.6190 -2.6672 -2.7006 -2.6996
-2.7117 -2.7451 -2.7664 -2.8471 -2.9575 -3.0067
-3.0447 -3.1153 -3.1412 -3.1570 -3.2080 -3.2349
-3.2664 -3.3397 -3.4102 -3.4826 -3.5837 -3.6682
-3.7368 -3.8259 -3.9289 -4.0096 -4.0931 -4.1590
-4.2202 -4.3538 -4.4652 -4.5700 -4.7055 -4.8029
-4.8558 -4.8771 -4.9049 -4.9021 -4.9021 -4.8965
-4.8937 -4.9271 -4.9280 -5.0106 -5.0904 -5.1349
-5.2193 -5.2611 -5.3557 -5.4559 -5.5348 -5.6378
-5.7361 -5.8781 -6.0201 -6.1815 -6.3077 -6.3791
-6.5044 -6.6046 -6.6927 -6.7967 -6.8829 -6.9627
-7.0119 -7.0973 -7.1835 -7.2392 -7.2995 -7.3171
-7.3190 -7.3292 -7.3403 -7.3653 -7.4163 -7.4664
-7.4423 -7.4052 -7.4163 -7.3634 -7.2631 -7.1675
-7.0367 -6.9624 -6.8891 -6.7833 -6.7425 -6.6979
-6.6756 -6.6821 -6.6580 -6.6394 -6.5948 -6.5048
-6.4352 -6.3656 -6.2895 -6.2310 -6.1512 -6.0231
-5.8616 -5.7206 -5.5554 -5.3670 -5.1999 -5.0292
-4.8714 -4.6932 -4.5085 -4.3526 -4.1577 -3.9267
-3.7225 -3.4942 -3.2845 -3.1369 -2.9699 -2.8353
-2.7137 -2.5986 -2.5207 -2.4139 -2.3128 -2.2088
-2.0835 -1.9954 -1.9016 -1.8209 -1.7717 -1.6733
-1.5916 -1.5090 -1.4218 -1.3364 -1.2167 -1.1526
-1.1072 -1.0812 -1.0589 -1.0255 -1.0171 -1.0032
-1.0068 -1.0096 -1.0059 -0.9910 -0.9660 -0.9298
-0.8397 -0.7321 -0.5864 -0.3655 -0.1409 0.0929
0.3370 0.5727 0.8354 1.0831 1.2984 1.5035
1.7161 1.9499 2.1699 2.4325 2.7313 3.0552
3.4227 3.7558 4.0806 4.3961 4.7042 5.0355
5.3381 5.6406 5.8986 6.1157 6.3264 6.4832
6.6391 6.7672 6.8739 6.9909 7.1004 7.2313
7.3222 7.3603 7.3881 7.4076 7.4039 7.3446
7.2425 7.0987 6.9159 6.7229 6.4946 6.2645
6.0149 5.7532 5.4888 5.1761 4.9246 4.6945
4.4588 4.2639 4.0663 3.8835 3.7044 3.5523
3.4363 3.3082 3.1783 3.0494 2.9324 2.8378
2.7450 2.6402 2.4722 2.2570 2.0927 1.9600
1.8422 1.7281 1.5935 1.4488 1.3170 1.2066
1.0897 0.9830 0.8253 0.6740 0.5627 0.4421
0.3753 0.2723 0.1628 0.1034 0.0385 -0.0162
-0.1044 -0.1517 -0.1684 -0.2250 -0.2556 -0.2964
-0.3651 -0.4662 -0.5887 -0.7251 -0.9310 -1.1259
-1.3393 -1.5750 -1.7764 -1.9935 -2.1744 -2.3099
-2.4082 -2.4453 -2.4435 -2.3906 -2.3237 -2.2439
-2.1205 -1.9933 -1.8597 -1.7697 -1.7112 -1.6407
-1.5655 -1.4736 -1.3928 -1.2973 -1.2258 -1.1330
-0.9715 -0.7980 -0.6123 -0.4889 -0.3794 -0.2569
-0.1622 -0.0898 -0.0527 0.0095 0.0281 0.0244
0.0420 -0.0174 -0.1009 -0.1788 -0.2734 -0.3801
-0.4933 -0.5972 -0.7234 -0.8338 -0.9303 -1.0565
-1.1372 -1.2105 -1.3414 -1.4295 -1.4907 -1.5139
-1.4805 -1.4267 -1.3051 -1.2002 -1.1204 -1.0359
-0.9784 -0.8986 -0.7993 -0.7157 -0.6109 -0.4689
-0.3167 -0.1273 0.0842 0.3005 0.5380 0.8109
1.1663 1.5514 1.9607 2.4080 2.8404 3.2710
3.6459 3.9373 4.1619 4.3447 4.5071 4.6111
4.6881 4.7317 4.7252 4.7364 4.7522 4.7485
4.7773 4.8070 4.8079 4.8200 4.8571 4.9388
5.0827 5.2321 5.3026 5.3602 5.4075 5.4205
5.4493 5.4530 5.4373 5.4187 5.4373 5.4855
5.5440 5.6712 5.8262 5.9440 6.0823 6.2447
6.3366 6.3988 6.4600 6.4656 6.4304 6.3422
6.1984 6.0240 5.7818 5.5303 5.2919 5.0255
4.8093 4.5616 4.2823 4.0271 3.7293 3.4203
3.1437 2.8598 2.5230 2.1889 1.8558 1.5208
1.1886 0.8360 0.4361 -0.0177 -0.4742 -0.9048
-1.3019 -1.7000 -2.0916 -2.4887 -2.8878 -3.2775
-3.6607 -4.0514 -4.4448 -4.7278 -5.0016 -5.2781
-5.5305 -5.8181 -6.0789 -6.3851 -6.7136 -7.0272
-7.3288 -7.6257 -7.9616 -8.2530 -8.5323 -8.8468
-9.1104 -9.3266 -9.5270 -9.6782 -9.7673 -9.8480
-9.9464 -10.0753 -10.1867 -10.2609 -10.3732 -10.4724
-10.5494 -10.6088 -10.6283 -10.6589 -10.6867 -10.6821
-10.6746 -10.6551 -10.6236 -10.5688 -10.4853 -10.4203
-10.2885 -10.1131 -9.9414 -9.6769 -9.3568 -9.0181
-8.6719 -8.3583 -8.0734 -7.8024 -7.5036 -7.1973
-6.8799 -6.5403 -6.2173 -5.8870 -5.5752 -5.2754
-4.9877 -4.7195 -4.4514 -4.1525 -3.7953 -3.4009
-2.9795 -2.5898 -2.2204 -1.8789 -1.5838 -1.2572
-0.9250 -0.6076 -0.2475 0.1339 0.4977 0.8076
1.0981 1.4053 1.6790 1.9723 2.2869 2.5968
2.8882 3.1499 3.4088 3.6176 3.8079 3.9759
4.0965 4.2385 4.3851 4.4789 4.5596 4.6543
4.6589 4.6135 4.5300 4.4001 4.2757 4.1523
4.0763 3.9965 3.8731 3.7218 3.5084 3.3080
3.1150 2.8691 2.6677 2.4812 2.2335 1.9913
1.7732 1.5487 1.3594 1.1877 1.0096 0.8444
0.6746 0.5058 0.3499 0.1977 0.0131 -0.1261
-0.2560 -0.4045 -0.5093 -0.6717 -0.8332 -1.0299
-1.2526 -1.4511 -1.7499 -2.0274 -2.3067 -2.6138
-2.9080 -3.2791 -3.6373 -3.9528 -4.2831 -4.5671
-4.8213 -5.0681 -5.2695 -5.4569 -5.6267 -5.7928
-5.9496 -6.0591 -6.1565 -6.2131 -6.2577 -6.2391
-6.1695 -6.1073 -5.9792 -5.8651 -5.7156 -5.5059
-5.2739 -5.0178 -4.7858 -4.5408 -4.3199 -4.1278
-3.9218 -3.7083 -3.4930 -3.2675 -3.0569 -2.8842
-2.7153 -2.5362 -2.3219 -2.0796 -1.7994 -1.4746
-1.1554 -0.8584 -0.5605 -0.2877 -0.0770 0.1225
0.2775 0.3898 0.4956 0.5597 0.6339 0.7211
0.8279 0.9365 0.9940 1.0562 1.1518 1.2400
1.3346 1.4395 1.5230 1.6261 1.7217 1.8210
1.9119 1.9713 2.0808 2.2061 2.3592 2.4688
2.5384 2.6405 2.7305 2.8187 2.8790 2.9115
2.8976 2.8846 2.8855 2.8726 2.8652 2.8030
2.7204 2.6360 2.5683 2.5302 2.5024 2.4523
2.3298 2.1842 1.9708 1.7416 1.5532 1.3583
1.1728 1.0048 0.9111 0.8276 0.7441 0.6708
0.5363 0.4092 0.3331 0.3015 0.2301 0.1429
0.0845 -0.0046 -0.1011 -0.2106 -0.2793 -0.3386
-0.4453 -0.5316 -0.6587 -0.8109 -0.9733 -1.1802
-1.3658 -1.5588 -1.7267 -1.8975 -2.0784 -2.2064
-2.3076 -2.3437 -2.3419 -2.3613 -2.3669 -2.3019
-2.2425 -2.1701 -2.0226 -1.8824 -1.7386 -1.6272
-1.5771 -1.4787 -1.3775 -1.2866 -1.1520 -1.0648
-0.9794 -0.8745 -0.7863 -0.6648 -0.5246 -0.3297
-0.1284 0.1074 0.3561 0.5658 0.8451 1.1217
1.3444 1.5254 1.7156 1.9430 2.1954 2.4747
2.7318 3.0111 3.2840 3.5883 3.9790 4.3103
4.5618 4.7864 4.9822 5.1196 5.2254 5.3386
5.4490 5.6049 5.7998 5.9938 6.1460 6.2666
6.3994 6.5107 6.6286 6.7168 6.7539 6.7855
6.7864 6.7818 6.7372 6.6853 6.6621 6.6102
6.5703 6.5322 6.4849 6.4488 6.3977 6.3551
6.3161 6.3013 6.2697 6.1751 6.0944 5.9422
5.7102 5.5182 5.3029 5.0700 4.8881 4.7202
4.4966 4.2572 4.0734 3.9324 3.8053 3.6373
3.3794 3.0490 2.7076 2.4283 2.1898 1.8891
1.5727 1.3018 1.0846 0.9158 0.7367 0.5372
0.3563 0.2681 0.1828 0.0863 -0.0455 -0.2116
-0.2812 -0.3480 -0.4612 -0.6486 -0.8518 -1.0448
-1.3018 -1.5756 -1.8205 -1.9606 -2.0311 -2.0627
-2.0228 -1.9689 -1.9494 -1.9309 -1.9383 -1.9494
-1.9187 -1.9262 -1.9113 -1.8723 -1.8398 -1.8092
-1.8231 -1.8713 -1.9205 -1.9390 -1.9437 -1.9576
-2.0141 -2.0410 -2.0475 -2.0586 -2.0846 -2.2284
-2.3750 -2.4845 -2.6144 -2.7703 -2.9559 -3.1489
-3.3642 -3.6036 -3.8040 -3.9441 -4.0842 -4.2382
-4.4062 -4.5871 -4.8098 -4.9982 -5.1216 -5.2505
-5.3628 -5.4574 -5.5196 -5.5511 -5.5298 -5.4982
-5.5075 -5.5214 -5.5353 -5.4750 -5.3756 -5.2401
-5.0777 -5.0035 -4.9404 -4.8485 -4.7501 -4.6360
-4.5413 -4.5079 -4.5051 -4.5023 -4.4995 -4.4521
-4.4169 -4.4076 -4.4075 -4.4094 -4.3880 -4.3676
-4.3091 -4.2905 -4.3045 -4.2701 -4.2191 -4.1030
-3.9573 -3.7986 -3.6307 -3.4738 -3.2854 -3.0841
-2.8920 -2.7008 -2.4706 -2.2414 -1.9936 -1.7254
-1.4749 -1.1566 -0.7900 -0.3761 0.0721 0.4943
0.9555 1.4641 1.9327 2.3661 2.7744 3.1456
3.4880 3.7757 4.0356 4.3038 4.5701 4.8132
5.0499 5.2893 5.5482 5.7979 5.9825 6.1431
6.2257 6.2443 6.2601 6.2183 6.1524 6.0272
5.8834 5.7386 5.5373 5.3480 5.1457 4.9369
4.6836 4.3774 4.1018 3.8624 3.6499 3.4282
3.2240 3.0486 2.8965 2.7424 2.5634 2.4075
2.2173 2.0326 1.8470 1.6346 1.4815 1.3209
1.2217 1.1307 0.9823 0.8663 0.7466 0.6566
0.5332 0.3597 0.1973 0.0377 -0.0978 -0.2342
-0.4095 -0.6276 -0.8642 -1.0906 -1.2929 -1.4525
-1.5443 -1.6714 -1.7846 -1.8199 -1.8793 -1.8885
-1.9256 -2.0323 -2.0991 -2.1836 -2.2420 -2.2735
-2.3524 -2.3830 -2.4081 -2.4322 -2.3941 -2.3690
-2.3124 -2.2688 -2.2808 -2.2660 -2.2149 -2.1639
-2.1490 -2.1360 -2.1081 -2.0757 -2.0339 -2.0014
-2.0283 -2.0700 -2.0431 -2.0217 -2.0078 -1.9632
-1.9688 -1.9957 -1.9827 -1.9873 -2.0096 -2.0058
-2.0188 -2.0021 -1.9594 -1.9510 -1.9510 -1.9529
-1.9464 -1.9565 -1.9630 -1.9741 -2.0205 -2.0632
-2.0957 -2.1170 -2.1290 -2.1300 -2.1225 -2.0956
-2.0585 -2.0306 -2.0556 -2.0742 -2.0603 -2.0380
-1.9544 -1.8765 -1.7957 -1.6621 -1.5025 -1.3122
-1.1145 -0.9252 -0.7359 -0.5345 -0.2830 -0.0130
0.2459 0.4928 0.7461 1.0088 1.2343 1.4793
1.7150 1.9015 2.1447 2.3349 2.4212 2.5326
2.6235 2.6913 2.7581 2.7878 2.8333 2.8881
2.9234 2.9902 3.1118 3.2250 3.3113 3.3939
3.4292 3.3921 3.3494 3.3318 3.3049 3.2427
3.1230 3.0061 2.9143 2.7983 2.6647 2.5097
2.3399 2.1943 2.0180 1.8064 1.6208 1.4260
1.2627 1.1021 0.9416 0.8294 0.6800 0.5185
0.3654 0.1956 0.0138 -0.1811 -0.3917 -0.6052
-0.7991 -0.9986 -1.1832 -1.3595 -1.5590 -1.7316
-1.8856 -2.0360 -2.1464 -2.2651 -2.3523 -2.4331
-2.5518 -2.6808 -2.8023 -2.8840 -2.9675 -3.0204
-3.0760 -3.1632 -3.2570 -3.3340 -3.3599 -3.3970
-3.4276 -3.4536 -3.5482 -3.6577 -3.7774 -3.9120
-4.0335 -4.1653 -4.3007 -4.4566 -4.5995 -4.7461
-4.8983 -5.0152 -5.1414 -5.2230 -5.2555 -5.3279
-5.3659 -5.3538 -5.3965 -5.4280 -5.4419 -5.4929
-5.5273 -5.5532 -5.5625 -5.5541 -5.5643 -5.5671
-5.5828 -5.5968 -5.5893 -5.6134 -5.5976 -5.5976
-5.6728 -5.7321 -5.8036 -5.8973 -6.0541 -6.2462
-6.3854 -6.5255 -6.6526 -6.7129 -6.7806 -6.8660
-6.9448 -7.0413 -7.0998 -7.1397 -7.1582 -7.1303
-7.1146 -7.0533 -6.9818 -6.9336 -6.8268 -6.7238
-6.5493 -6.3322 -6.1521 -5.9415 -5.7670 -5.5879
-5.4218 -5.2835 -5.1461 -5.0181 -4.8362 -4.6144
-4.3703 -4.1875 -4.0028 -3.8042 -3.6195 -3.3764
-3.1574 -2.9031 -2.6479 -2.4493 -2.2136 -2.0076
-1.8145 -1.6215 -1.4517 -1.2688 -1.1231 -0.9821
-0.8438 -0.7593 -0.6953 -0.6331 -0.5533 -0.5078
-0.4697 -0.4410 -0.4530 -0.3741 -0.2767 -0.1876
-0.0790 0.0008 0.0909 0.1902 0.3145 0.4008
0.5141 0.7117 0.9150 1.1470 1.4050 1.7029
1.9980 2.3070 2.6569 3.0160 3.3900 3.7343
4.1092 4.4767 4.7875 5.0993 5.3685 5.5893
5.8186 6.0840 6.3299 6.5350 6.7410 6.9591
7.1660 7.3609 7.5670 7.7479 7.9280 8.0774
8.1702 8.2630 8.3400 8.4236 8.4839 8.4783
8.4487 8.4032 8.3262 8.2149 8.0349 7.8057
7.5997 7.3779 7.1543 6.9344 6.6606 6.3665
6.0593 5.7364 5.4302 5.1221 4.8531 4.6211
4.3631 4.1265 3.8723 3.5818 3.3118 3.0186
2.6947 2.3505 1.9942 1.6304 1.2750 0.9159
0.5401 0.2163 -0.0955 -0.4556 -0.8193 -1.1840
-1.5143 -1.8502 -2.2260 -2.5694 -2.9377 -3.2941
-3.6151 -3.9408 -4.2517 -4.5597 -4.8047 -5.0218
-5.2306 -5.4431 -5.6315 -5.7558 -5.9052 -6.0388
-6.1529 -6.2782 -6.4118 -6.5064 -6.5602 -6.6419
-6.7059 -6.7987 -6.9007 -6.9508 -7.0139 -7.0584
-7.1020 -7.1447 -7.1725 -7.2004 -7.1994 -7.2245
-7.2393 -7.2411 -7.2532 -7.1882 -7.1167 -7.0406
-6.9014 -6.7659 -6.5877 -6.3539 -6.1107 -5.8509
-5.6365 -5.4658 -5.2700 -5.0964 -4.9312 -4.7670
-4.6185 -4.4904 -4.3809 -4.2324 -4.1201 -4.0329
-3.9447 -3.8769 -3.7934 -3.7052 -3.6356 -3.5911
-3.5047 -3.4426 -3.3841 -3.2653 -3.1539 -3.0342
-2.9572 -2.8699 -2.7446 -2.6388 -2.5339 -2.4346
-2.3585 -2.2750 -2.1757 -2.0912 -2.0049 -1.9242
-1.8341 -1.7191 -1.5928 -1.4815 -1.3970 -1.2847
-1.1576 -1.0425 -0.9135 -0.7483 -0.5831 -0.4383
-0.3075 -0.1878 -0.0690 0.0276 0.1454 0.2744
0.3886 0.4944 0.5798 0.6596 0.7413 0.7923
0.8313 0.9223 0.9928 1.0782 1.1970 1.3028
1.4207 1.5153 1.6434 1.7863 1.9385 2.1306
2.3023 2.4916 2.6744 2.8554 3.0457 3.2071
3.3909 3.5663 3.6851 3.8252 3.9886 4.1268
4.2688 4.3821 4.5036 4.6614 4.7607 4.8702
5.0094 5.0809 5.1654 5.2610 5.2907 5.3371
5.4085 5.4512 5.5106 5.5756 5.6480 5.7594
5.8596 5.9803 6.0731 6.1186 6.1715 6.2402
6.3385 6.4026 6.4991 6.5798 6.6578 6.7747
6.8406 6.9529 7.0792 7.1905 7.2843 7.3697
7.4374 7.4718 7.5182 7.5247 7.4978 7.4449
7.3781 7.3206 7.2334 7.1285 7.0339 6.9235
6.8511 6.7973 6.7157 6.6591 6.5895 6.4717
6.3418 6.2137 6.0597 5.8936 5.7321 5.5809
5.4232 5.2654 5.1058 4.9017 4.6827 4.4350
4.1733 3.9209 3.6889 3.4709 3.2176 2.9902
2.7759 2.5346 2.3017 2.0929 1.9037 1.7088
1.5186 1.3339 1.1697 1.0027 0.8403 0.6946
0.5118 0.3513 0.1648 -0.0393 -0.1943 -0.3845
-0.5320 -0.6415 -0.7705 -0.8837 -1.0099 -1.1129
-1.2428 -1.3606 -1.4497 -1.5963 -1.7419 -1.9164
-2.0797 -2.1920 -2.3274 -2.4583 -2.5445 -2.6216
-2.6828 -2.7060 -2.6892 -2.6178 -2.5175 -2.4080
-2.3115 -2.1834 -2.0507 -1.9347 -1.8039 -1.7138
-1.5978 -1.4595 -1.3463 -1.2192 -1.1022 -0.9918
-0.8619 -0.7449 -0.6206 -0.4962 -0.3820 -0.2503
-0.1361 -0.0247 0.0820 0.1906 0.3010 0.3873
0.4737 0.5757 0.6686 0.7595 0.8597 0.9368
1.0222 1.1224 1.2273 1.2922 1.3349 1.4111
1.4352 1.4631 1.5141 1.5280 1.5466 1.5605
1.5930 1.6070 1.5856 1.5597 1.4920 1.4205
1.3519 1.2554 1.1477 1.0364 0.9380 0.8341
0.7432 0.6708 0.5576 0.4732 0.4101 0.3238
0.2598 0.1977 0.1244 0.0743 0.0325 -0.0111
-0.0250 -0.0556 -0.0880 -0.1428 -0.2244 -0.2792
-0.3367 -0.3747 -0.3951 -0.4359 -0.5036 -0.5630
-0.6307 -0.6901 -0.7411 -0.7903 -0.8265 -0.9081
-0.9981 -1.1206 -1.2459 -1.3544 -1.4639 -1.5483
-1.6597 -1.7608 -1.8026 -1.8369 -1.8990 -1.9677
-2.0261 -2.0855 -2.1449 -2.2200 -2.3369 -2.4956
-2.6339 -2.7192 -2.7999 -2.8732 -2.9447 -3.0439
-3.1339 -3.2536 -3.3770 -3.4949 -3.6071 -3.6739
-3.7556 -3.8289 -3.9282 -4.0423 -4.1221 -4.1388
-4.1128 -4.0775 -3.9819 -3.8984 -3.8009 -3.7090
-3.6116 -3.4584 -3.3796 -3.2710 -3.1577 -3.0965
-3.0009 -2.9229 -2.8088 -2.7290 -2.6232 -2.5044
-2.5108 -2.4338 -2.3299 -2.2630 -2.1656 -2.0783
-1.9707 -1.8797 -1.8166 -1.7628 -1.7368 -1.7117
-1.6978 -1.7005 -1.6764 -1.6829 -1.7228 -1.7330
-1.7812 -1.8359 -1.8471 -1.8489 -1.8127 -1.7663
-1.7236 -1.7161 -1.7625 -1.8869 -2.0242 -2.1671
-2.3610 -2.4742 -2.5586 -2.6551 -2.7071 -2.7497
-2.7674 -2.7395 -2.6727 -2.5743 -2.4713 -2.3580
-2.2226 -2.1223 -2.0276 -1.9506 -1.8958 -1.8170
-1.7297 -1.6397 -1.5524 -1.4179 -1.2954 -1.1766
-1.0086 -0.8982 -0.8276 -0.7812 -0.7487 -0.6967
-0.6531 -0.6215 -0.6345 -0.6753 -0.7273 -0.8145
-0.9193 -1.0149 -1.0919 -1.1569 -1.2051 -1.2626
-1.3294 -1.3999 -1.4751 -1.5047 -1.6096 -1.7553
-1.8731 -1.9835 -2.0782 -2.2081 -2.2693 -2.3342
-2.4084 -2.4372 -2.5031 -2.5634 -2.6255 -2.6766
-2.7229 -2.7452 -2.7842 -2.8101 -2.8333 -2.9409
-3.0170 -3.1191 -3.2351 -3.3362 -3.4624 -3.5449
-3.5978 -3.6526 -3.7426 -3.8363 -3.9467 -4.0933
-4.2325 -4.3679 -4.4848 -4.5980 -4.7131 -4.8458
-4.9571 -5.0527 -5.1984 -5.2939 -5.3700 -5.4238
-5.4386 -5.4711 -5.4646 -5.4618 -5.4191 -5.3393
-5.2845 -5.2130 -5.1768 -5.1592 -5.1211 -5.1276
-5.0812 -4.9726 -4.8742 -4.7573 -4.6812 -4.5986
-4.5150 -4.4594 -4.4185 -4.4046 -4.3795 -4.3841
-4.3535 -4.2718 -4.1744 -4.0556 -3.9349 -3.8143
-3.7131 -3.5990 -3.4755 -3.3382 -3.1804 -3.0319
-2.8565 -2.6626 -2.4881 -2.3415 -2.2338 -2.1512
-2.0454 -1.9285 -1.7744 -1.5712 -1.3763 -1.1786
-0.9531 -0.7081 -0.4724 -0.2070 0.0640 0.3174
0.5865 0.7916 0.9744 1.1322 1.2519 1.3512
1.3911 1.4468 1.4654 1.4710 1.5313 1.5712
1.6334 1.6947 1.7587 1.8432 1.9350 2.0158
2.0464 2.0641 2.0678 2.1105 2.1569 2.1978
2.2804 2.3286 2.3583 2.4020 2.4066 2.4363
2.5050 2.5589 2.6461 2.7046 2.7927 2.8568
2.8809 2.9348 2.9283 2.9339 2.8995 2.8578
2.8411 2.8421 2.8959 2.9154 2.9405 2.9897
3.0500 3.0983 3.1688 3.2783 3.3776 3.4964
3.6245 3.7377 3.8203 3.8955 3.9902 4.0913
4.1860 4.3178 4.4691 4.6045 4.7308 4.8310
4.9015 4.8886 4.8570 4.8227 4.7828 4.7457
4.6678 4.6233 4.5694 4.4850 4.3997 4.2995
4.1696 4.0127 3.8828 3.8086 3.7260 3.5980
3.4644 3.2844 3.1229 3.0218 2.8715 2.7564
2.6692 2.5467 2.4243 2.2907 2.1691 2.0457
1.9409 1.8304 1.7154 1.6440 1.5734 1.4584
1.3712 1.3693 1.3257 1.3174 1.3035 1.2729
1.3119 1.3045 1.2850 1.2525 1.1802 1.1032
1.0030 0.8675 0.7459 0.5984 0.4416 0.3098
0.1475 0.0027 -0.1801 -0.3369 -0.4204 -0.4881
-0.5215 -0.5558 -0.5771 -0.5957 -0.6050 -0.6124
-0.6495 -0.6819 -0.6931 -0.7125 -0.7673 -0.7923
-0.7979 -0.8006 -0.8080 -0.8266 -0.8191 -0.8024
-0.7430 -0.6725 -0.5639 -0.4182 -0.3170 -0.1583
0.0041 0.1284 0.2593 0.3326 0.4115 0.5331
0.6333 0.7280 0.8496 0.9943 1.1428 1.3062
1.4667 1.5892 1.7108 1.8565 2.0106 2.1256
2.2259 2.3187 2.3976 2.5247 2.6240 2.7178
2.8533 2.9906 3.1196 3.2709 3.4333 3.5521
3.6857 3.8389 4.0078 4.1711 4.3224 4.4727
4.5980 4.7140 4.7892 4.8477 4.8755 4.8978
4.9665 5.0213 5.0890 5.1466 5.1633 5.1308
5.0640 5.0074 4.9332 4.9045 4.8701 4.7746
4.6762 4.5686 4.4415 4.3097 4.2030 4.0796
3.9590 3.8495 3.6834 3.4951 3.3095 3.0989
2.8706 2.6841 2.4809 2.2480 2.0206 1.7692
1.5149 1.2319 0.9777 0.7940 0.5889 0.4033
0.2781 0.1936 0.1268 0.0684 0.0109 -0.0652
-0.1088 -0.1366 -0.1515 -0.1626 -0.2034 -0.2489
-0.3092 -0.3880 -0.4548 -0.4929 -0.5300 -0.5736
-0.6394 -0.7109 -0.7851 -0.8333 -0.8621 -0.8918
-0.8723 -0.8769 -0.8602 -0.8472 -0.8527 -0.8471
-0.8870 -0.9204 -0.9937 -1.0856 -1.1635 -1.2247
-1.2850 -1.3648 -1.4168 -1.4669 -1.5197 -1.5912
-1.6645 -1.7461 -1.8547 -1.9753 -2.1136 -2.2425
-2.3780 -2.5812 -2.8039 -2.9895 -3.1973 -3.4052
-3.5898 -3.7856 -3.9443 -4.0389 -4.0983 -4.0890
-4.0648 -4.0555 -4.0147 -4.0193 -4.0258 -3.9840
-3.9645 -3.9376 -3.9051 -3.9005 -3.8875 -3.8531
-3.8345 -3.8085 -3.7491 -3.6804 -3.6071 -3.5347
-3.4475 -3.3825 -3.3277 -3.2637 -3.2544 -3.2655
-3.3295 -3.4205 -3.4891 -3.5838 -3.6422 -3.6756
-3.7034 -3.7043 -3.7145 -3.6737 -3.6291 -3.6133
-3.5187 -3.3990 -3.2570 -3.0389 -2.8069 -2.6417
-2.5108 -2.4189 -2.4022 -2.3874 -2.4486 -2.5219
-2.5692 -2.6527 -2.6582 -2.6657 -2.6972 -2.6981
-2.7259 -2.7500 -2.7779 -2.8372 -2.9560 -3.1175
-3.2993 -3.5109 -3.6798 -3.8236 -3.9479 -4.0212
-4.0759 -4.1427 -4.2216 -4.2958 -4.4137 -4.5640
-4.7087 -4.8655 -5.0344 -5.2163 -5.3768 -5.5605
-5.7238 -5.8389 -5.9706 -6.0486 -6.1098 -6.1766
-6.2480 -6.3482 -6.4809 -6.6925 -6.9727 -7.2882
-7.6204 -7.9665 -8.2588 -8.4778 -8.6392 -8.7478
-8.8406 -8.8832 -8.9129 -8.9315 -8.9481 -8.9760
-8.9194 -8.8822 -8.8321 -8.7346 -8.6678 -8.5546
-8.4905 -8.4284 -8.3216 -8.2195 -8.0998 -8.0367
-7.9792 -7.9300 -7.9114 -7.9077 -7.9188 -7.9262
-7.9299 -7.9104 -7.8751 -7.7684 -7.6422 -7.5002
-7.3220 -7.1392 -6.9053 -6.6816 -6.5090 -6.3698
-6.2315 -6.0756 -5.9058 -5.7183 -5.5281 -5.3573
-5.1791 -5.0065 -4.8673 -4.7281 -4.6019 -4.4720
-4.3504 -4.2334 -4.1044 -3.9986 -3.8993 -3.7945
-3.6766 -3.5652 -3.4622 -3.3462 -3.2200 -3.0696
-2.9870 -2.9508 -2.9220 -2.9276 -2.9165 -2.9146
-2.8765 -2.8375 -2.7865 -2.7057 -2.6547 -2.5721
-2.5062 -2.4115 -2.3076 -2.2639 -2.2045 -2.1377
-2.0505 -1.9177 -1.7999 -1.7006 -1.5901 -1.5419
-1.5066 -1.4611 -1.4750 -1.4722 -1.4759 -1.4712
-1.4295 -1.3654 -1.3005 -1.2373 -1.1343 -1.0786
-0.9849 -0.8494 -0.7055 -0.5598 -0.4605 -0.3584
-0.3157 -0.2944 -0.2962 -0.3148 -0.3287 -0.3314
-0.2962 -0.2386 -0.1273 0.0055 0.1744 0.3646
0.5975 0.8741 1.1423 1.4058 1.6564 1.8773
2.0712 2.2708 2.5074 2.7932 3.0735 3.3760
3.7129 4.0173 4.2957 4.5778 4.8497 5.1151
5.4204 5.6960 5.9605 6.2250 6.4616 6.7001
6.8746 7.0370 7.2050 7.3516 7.4834 7.6319
7.8147 7.9363 8.0291 8.1043 8.1303 8.1424
8.1016 8.0515 8.0413 8.0302 8.0311 8.0525
8.0645 8.0766 8.0850 8.0692 8.0210 7.9356
7.8540 7.7751 7.7027 7.6285 7.5023 7.3984
7.2759 7.1061 6.9614 6.7628 6.5513 6.3703
6.1254 5.8683 5.6169 5.3190 5.0573 4.7947
4.5275 4.2900 4.0329 3.8102 3.5977 3.4168
3.2897 3.1858 3.0781 2.9436 2.7896 2.5938
2.3804 2.1141 1.8264 1.5471 1.2687 1.0627
0.8651 0.6935 0.5589 0.3854 0.2277 0.0922
-0.0136 -0.1221 -0.3114 -0.5490 -0.8162 -1.0695
-1.3266 -1.5233 -1.6736 -1.8684 -1.9993 -2.0846
-2.1459 -2.2062 -2.2757 -2.3045 -2.3128 -2.3249
-2.3991 -2.4585 -2.5076 -2.5485 -2.5225 -2.4909
-2.4278 -2.3489 -2.2524 -2.1048 -1.9359 -1.7494
-1.5953 -1.4580 -1.2974 -1.1610 -1.0793 -1.0032
-0.9057 -0.8408 -0.7897 -0.7544 -0.7405 -0.7284
-0.7006 -0.6291 -0.5734 -0.5233 -0.4351 -0.3070
-0.1808 -0.0778 -0.0138 -0.0045 -0.0258 -0.0555
-0.0471 -0.0564 -0.0619 -0.0090 0.0559 0.1460
0.2323 0.3167 0.4170 0.4912 0.5887 0.7251
0.8838 1.0611 1.2420 1.4341 1.6040 1.7766
1.9594 2.1654 2.3854 2.5830 2.8382 3.0897
3.3032 3.5064 3.6595 3.8034 3.9621 4.1217
4.2331 4.2934 4.3166 4.2916 4.2573 4.2044
4.1274 4.0253 3.9019 3.8073 3.6829 3.5002
3.3174 3.1067 2.9119 2.7384 2.4980 2.2262
1.9849 1.7566 1.4838 1.2082 0.9596 0.7294
0.5355 0.3731 0.2868 0.1746 0.0391 -0.0249
-0.1056 -0.1910 -0.2401 -0.2782 -0.3431 -0.4229
-0.4934 -0.5528 -0.6001 -0.6530 -0.6604 -0.6465
-0.6641 -0.6715 -0.6807 -0.7160 -0.7633 -0.7893
-0.7985 -0.7633 -0.7261 -0.7131 -0.7075 -0.7567
-0.7966 -0.8884 -1.0109 -1.1121 -1.2355 -1.2985
-1.3709 -1.4591 -1.5314 -1.6066 -1.6641 -1.7699
-1.8487 -1.9044 -1.9981 -2.0324 -2.0807 -2.1614
-2.2263 -2.2643 -2.2597 -2.2467 -2.2179 -2.2151
-2.1761 -2.0666 -1.9079 -1.7214 -1.6007 -1.4894
-1.3743 -1.3047 -1.2499 -1.1617 -1.0494 -0.9297
-0.7692 -0.6151 -0.4508 -0.2457 -0.0397 0.2043
0.4345 0.5951 0.7612 0.9440 1.1333 1.3152
1.4906 1.6465 1.7653 1.9017 2.0400 2.1811
2.3472 2.5254 2.7360 2.9421 3.1286 3.2854
3.4311 3.5472 3.6428 3.7755 3.8609 3.9620
4.0790 4.1486 4.2052 4.2247 4.2507 4.2544
4.2377 4.1978 4.1347 4.1088 4.1032 4.1339
4.1645 4.1831 4.1933 4.1961 4.1766 4.0876
3.9883 3.8881 3.7507 3.5772 3.3889 3.2070
3.0539 2.9147 2.7960 2.7301 2.6531 2.5585
2.5019 2.4703 2.4592 2.4230 2.3330 2.2514
2.1391 1.9897 1.8654 1.7429 1.5527 1.3699
1.2651 1.1175 1.0229 0.9747 0.9079 0.8633
0.8142 0.8003 0.8337 0.8643 0.8588 0.8866
0.9117 0.9256 0.9637 1.0036 1.0751 1.1159
1.1169 1.1336 1.1651 1.1967 1.2487 1.3415
1.4306 1.4724 1.5049 1.5290 1.5392 1.5485
1.5652 1.5690 1.5523 1.5291 1.4335 1.3398
1.2294 1.0856 0.9529 0.8035 0.7145 0.6319
0.5419 0.4890 0.4426 0.3981 0.3907 0.3916
0.3657 0.3221 0.2831 0.2627 0.1848 0.0911
0.0113 -0.0954 -0.2151 -0.3506 -0.5213 -0.7134
-0.9129 -1.1365 -1.3546 -1.5773 -1.7888 -2.0217
-2.2528 -2.4541 -2.6685 -2.8541 -3.0582 -3.2521
-3.4581 -3.7059 -3.9787 -4.2366 -4.4519 -4.6913
-4.8592 -5.0235 -5.2026 -5.3594 -5.5199 -5.6516
-5.7723 -5.8641 -5.9708 -6.0710 -6.1768 -6.3253
-6.4245 -6.4867 -6.5600 -6.6296 -6.7084 -6.7446
-6.7696 -6.7817 -6.7501 -6.7594 -6.7074 -6.6443
-6.6127 -6.5376 -6.4188 -6.2768 -6.1784 -6.0522
-5.9018 -5.7134 -5.4870 -5.2680 -5.0508 -4.8569
-4.6119 -4.3919 -4.1766 -3.9140 -3.6876 -3.4416
-3.2291 -3.0389 -2.8626 -2.7168 -2.5628 -2.4607
-2.3670 -2.2658 -2.1628 -2.0477 -1.9029 -1.7312
-1.5827 -1.4055 -1.2125 -1.0111 -0.7976 -0.5749
-0.3457 -0.1796 -0.0255 0.1814 0.3661 0.5378
0.7327 0.8478 0.9127 0.9406 0.9415 0.9796
0.9963 1.0520 1.1355 1.2135 1.2989 1.3834
1.4752 1.5337 1.5458 1.5245 1.5180 1.5199
1.5254 1.5366 1.5607 1.5932 1.6099 1.6619
1.7538 1.8253 1.8541 1.8800 1.8921 1.8875
1.9135 1.9980 2.0750 2.0982 2.0973 2.0927
2.0797 2.0175 1.9693 1.9443 1.8886 1.8617
1.9035 1.9601 2.0102 2.1253 2.2209 2.2395
2.2580 2.2562 2.2154 2.1941 2.1820 2.1338
2.0837 2.0707 2.0512 1.9881 1.9241 1.8332
1.7432 1.6875 1.5966 1.4927 1.3758 1.2450
1.1271 0.9833 0.8228 0.6660 0.5240 0.4145
0.3217 0.2726 0.2160 0.1715 0.1975 0.1789
0.1344 0.1093 0.0982 0.0917 0.0695 0.0500
-0.0066 -0.0873 -0.2033 -0.3341 -0.4176 -0.4770
-0.5549 -0.6171 -0.6254 -0.6402 -0.6189 -0.5650
-0.5066 -0.4537 -0.4379 -0.4462 -0.4657 -0.4805
-0.5687 -0.6865 -0.7904 -0.9185 -0.9927 -1.0391
-1.0873 -1.1151 -1.1170 -1.1105 -1.0910 -1.1141
-1.1262 -1.0993 -1.1159 -1.0853 -1.0890 -1.1521
-1.2291 -1.3080 -1.3376 -1.3710 -1.4146 -1.4573
-1.4666 -1.4675 -1.4767 -1.5259 -1.5751 -1.5370
-1.5203 -1.5231 -1.5565 -1.6047 -1.6279 -1.6186
-1.5527 -1.5323 -1.5536 -1.6176 -1.6816 -1.7215
-1.7336 -1.7205 -1.7317 -1.7150 -1.7391 -1.8049
-1.8680 -1.9422 -2.0378 -2.1297 -2.1816 -2.2985
-2.4145 -2.5064 -2.6112 -2.6344 -2.6483 -2.6761
-2.7559 -2.9090 -3.0203 -3.1354 -3.2375 -3.2894
-3.3237 -3.3655 -3.4081 -3.4183 -3.4721 -3.5491
-3.6141 -3.6503 -3.6419 -3.6233 -3.6038 -3.6391
-3.7105 -3.8144 -3.9230 -4.0018 -4.0956 -4.1308
-4.1568 -4.2226 -4.3201 -4.4527 -4.6281 -4.8322
-4.9742 -5.0512 -5.0725 -5.0911 -5.1087 -5.1300
-5.1616 -5.1439 -5.1105 -5.1031 -5.0984 -5.0047
-4.8701 -4.7485 -4.6344 -4.5759 -4.5332 -4.4756
-4.3930 -4.3021 -4.1545 -3.9791 -3.8473 -3.7118
-3.5791 -3.4678 -3.3963 -3.3211 -3.2543 -3.2005
-3.1448 -3.0770 -2.9721 -2.8682 -2.6919 -2.5174
-2.4051 -2.3253 -2.2826 -2.2482 -2.2593 -2.2435
-2.2194 -2.2064 -2.1804 -2.1822 -2.1822 -2.1674
-2.1052 -2.0179 -1.9001 -1.7395 -1.5920 -1.4676
-1.3711 -1.2346 -1.1038 -0.9813 -0.8476 -0.7289
-0.5497 -0.4272 -0.2852 -0.1451 -0.0838 0.0424
0.1370 0.2568 0.3718 0.4433 0.5241 0.5519
0.6113 0.6911 0.7672 0.8202 0.8582 0.9213
0.9603 0.9891 1.0067 0.9771 0.9808 1.0059
1.0003 1.0189 1.0421 1.0551 1.0848 1.1182
1.1479 1.2092 1.2881 1.3373 1.3577 1.3744
1.3327 1.2483 1.1926 1.1509 1.1323 1.1101
1.1138 1.1574 1.1546 1.0814 0.9412 0.7742
0.6044 0.4476 0.2825 0.0885 -0.1082 -0.2956
-0.4515 -0.6111 -0.7558 -0.8932 -1.0667 -1.2198
-1.3571 -1.4824 -1.5714 -1.6661 -1.7579 -1.8173
-1.8637 -1.8915 -1.9036 -1.8868 -1.8451 -1.8024
-1.7903 -1.7745 -1.7587 -1.7661 -1.7336 -1.7392
-1.7280 -1.6658 -1.5860 -1.4746 -1.3948 -1.2862
-1.1433 -1.0078 -0.8454 -0.6812 -0.5030 -0.3396
-0.2450 -0.1299 -0.0204 0.0539 0.1300 0.2052
0.3574 0.5077 0.6506 0.8186 0.9485 1.0850
1.2075 1.3179 1.4460 1.5342 1.6214 1.7495
1.8581 1.9880 2.1058 2.2330 2.3945 2.4901
2.5792 2.6571 2.7063 2.7602 2.8446 2.9504
3.0451 3.1175 3.1305 3.1222 3.0702 2.9589
2.8485 2.7334 2.5970 2.4588 2.3289 2.2444
2.1758 2.0811 1.9819 1.8798 1.7388 1.6070
1.4892 1.3342 1.2099 1.0902 0.9724 0.8805
0.7654 0.6634 0.5678 0.4621 0.3618 0.2598
0.1800 0.0909 0.0297 -0.0056 -0.1132 -0.2106
-0.2793 -0.3535 -0.4212 -0.4926 -0.5632 -0.6708
-0.7701 -0.8591 -0.9816 -1.1096 -1.2358 -1.3500
-1.4706 -1.6079 -1.7220 -1.8278 -1.9540 -2.0765
-2.1832 -2.2592 -2.3882 -2.5348 -2.6350 -2.7863
-2.9050 -3.0312 -3.1593 -3.2372 -3.3253 -3.3819
-3.3754 -3.3216 -3.2724 -3.2297 -3.1972 -3.1554
-3.1025 -3.0459 -2.9948 -2.9568 -2.9289 -2.9113
-2.8547 -2.8676 -2.9140 -2.9056 -2.8973 -2.8397
-2.7553 -2.6884 -2.6782 -2.7098 -2.7190 -2.7311
-2.7468 -2.7988 -2.8183 -2.8247 -2.8878 -2.9398
-3.0019 -3.0353 -3.0539 -3.0743 -3.0705 -3.0965
-3.1132 -3.1373 -3.1605 -3.1493 -3.1345 -3.0825
-3.0036 -2.9080 -2.8189 -2.7131 -2.5962 -2.5711
-2.5906 -2.6156 -2.6202 -2.5840 -2.5441 -2.4708
-2.4012 -2.3436 -2.2443 -2.1070 -1.9752 -1.8666
-1.8035 -1.7562 -1.6680 -1.6058 -1.5455 -1.4647
-1.3691 -1.2364 -1.1557 -1.0359 -0.8819 -0.7529
-0.5636 -0.3798 -0.2081 -0.0272 0.1288 0.2754
0.3942 0.5009 0.5928 0.6578 0.7218 0.7914
0.8545 0.9557 1.1033 1.2026 1.3167 1.4337
1.5710 1.7362 1.8494 2.0155 2.2095 2.3905
2.5538 2.6958 2.7905 2.8656 2.9529 3.0448
3.1413 3.1868 3.3260 3.5339 3.7482 3.9886
4.1621 4.3088 4.4016 4.4758 4.5343 4.5529
4.6160 4.6828 4.7682 4.8685 4.9149 4.9307
4.9390 4.9298 4.9177 4.8945 4.8695 4.8732
4.8742 4.8899 4.9104 4.9345 4.9707 4.9912
5.0144 5.0005 4.9578 4.9290 4.8706 4.7704
4.6795 4.6470 4.6665 4.6619 4.6702 4.6944
4.6786 4.6619 4.6564 4.6731 4.6583 4.6304
4.6091 4.5163 4.4022 4.2909 4.2027 4.1239
4.0199 3.8873 3.7017 3.5783 3.5050 3.3658
3.1904 3.0086 2.8425 2.6810 2.5177 2.3888
2.2950 2.1921 2.0640 1.9415 1.8089 1.6873
1.5806 1.4720 1.3533 1.2540 1.1714 1.0443
0.9283 0.8133 0.6528 0.4969 0.3531 0.2241
0.1109 0.0098 -0.0338 -0.0644 -0.1127 -0.1377
-0.1758 -0.2147 -0.2342 -0.2073 -0.1358 -0.1079
-0.0625 0.0378 0.1408 0.2494 0.3348 0.4480
0.6067 0.7645 0.9436 1.1069 1.2378 1.3723
1.5227 1.6443 1.7315 1.8048 1.8392 1.8921
1.9181 1.9088 1.9357 1.9051 1.8680 1.8662
1.8551 1.8690 1.8783 1.8644 1.8533 1.8644
1.8876 1.9275 1.9870 2.0315 2.0696 2.0863
2.1114 2.1494 2.2033 2.2654 2.3016 2.3629
2.4325 2.4511 2.4103 2.3825 2.3713 2.3212
2.2721 2.2266 2.1904 2.1923 2.2202 2.2267
2.1812 2.0717 1.9650 1.8992 1.8212 1.7312
1.6125 1.4575 1.2877 1.1328 0.9657 0.7542
0.5705 0.3589 0.1594 0.0007 -0.2229 -0.4113
-0.5773 -0.7462 -0.8696 -1.0144 -1.1693 -1.3289
-1.4792 -1.6295 -1.7891 -1.9376 -2.0684 -2.1640
-2.2902 -2.4312 -2.5342 -2.6233 -2.7114 -2.7986
-2.8710 -2.9628 -3.0436 -3.0872 -3.1243 -3.1354
-3.1586 -3.2133 -3.2801 -3.3311 -3.3617 -3.4016
-3.4397 -3.4712 -3.4740 -3.4860 -3.5055 -3.5129
-3.5491 -3.5760 -3.6270 -3.6891 -3.7606 -3.8107
-3.8097 -3.7921 -3.7772 -3.8013 -3.8449 -3.8867
-3.9154 -3.9210 -3.9061 -3.9005 -3.8513 -3.8077
-3.7780 -3.7010 -3.6768 -3.5877 -3.4986 -3.4318
-3.3241 -3.2814 -3.1905 -3.0838 -2.9872 -2.9167
-2.8415 -2.7404 -2.6726 -2.5900 -2.5287 -2.4814
-2.4257 -2.3561 -2.3041 -2.2744 -2.2317 -2.2159
-2.1843 -2.1992 -2.2400 -2.2001 -2.2066 -2.2056
-2.1694 -2.1323 -2.0506 -2.0181 -1.9698 -1.9299
-1.9169 -1.8993 -1.8686 -1.8241 -1.8083 -1.7405
-1.6616 -1.6013 -1.5614 -1.5539 -1.5419 -1.5363
-1.5502 -1.5669 -1.5845 -1.6142 -1.6179 -1.6633
-1.7106 -1.7329 -1.7644 -1.7718 -1.8516 -1.9379
-1.9787 -2.0492 -2.1327 -2.2209 -2.2701 -2.2450
-2.1921 -2.1429 -2.0723 -1.9999 -2.0018 -1.9999
-1.9869 -2.0342 -2.0648 -2.1047 -2.1873 -2.2597
-2.2763 -2.2587 -2.2104 -2.1436 -2.0740 -1.9858
-1.9088 -1.8234 -1.7918 -1.7426 -1.6721 -1.6368
-1.5793 -1.5449 -1.5004 -1.4716 -1.4382 -1.3945
-1.3388 -1.2646 -1.2089 -1.1003 -1.0075 -0.9156
-0.8367 -0.7857 -0.7235 -0.6641 -0.5629 -0.5100
-0.4515 -0.3912 -0.3606 -0.3077 -0.2826 -0.2334
-0.1712 -0.1109 -0.0431 0.0209 0.1045 0.1908
0.2910 0.3810 0.4497 0.5110 0.5583 0.5630
0.5435 0.5398 0.4461 0.3320 0.2429 0.1464
0.0750 -0.0364 -0.1097 -0.1802 -0.2581 -0.2869
-0.3202 -0.3193 -0.3360 -0.3898 -0.4074 -0.3926
-0.3981 -0.3767 -0.3285 -0.3016 -0.2245 -0.1660
-0.1382 -0.0862 -0.0593 -0.0416 0.0048 0.0345
0.0438 0.1060 0.1626 0.1988 0.2805 0.3659
0.4336 0.4930 0.5060 0.5098 0.5525 0.5367
0.4987 0.4792 0.4347 0.3911 0.3586 0.3308
0.3085 0.3234 0.3327 0.3243 0.3281 0.2863
0.2529 0.2279 0.1815 0.1704 0.1416 0.0618
-0.0161 -0.0996 -0.2313 -0.3297 -0.3928 -0.5153
-0.6053 -0.6665 -0.7500 -0.8112 -0.8938 -1.0042
-1.1128 -1.2380 -1.3512 -1.4236 -1.4857 -1.5590
-1.6258 -1.6472 -1.6620 -1.6638 -1.6629 -1.6852
-1.6842 -1.7120 -1.7612 -1.8048 -1.8651 -1.9282
-1.9885 -2.0237 -2.0618 -2.1035 -2.1109 -2.1165
-2.1220 -2.1434 -2.1600 -2.1730 -2.2092 -2.1878
-2.1498 -2.0551 -1.9363 -1.8713 -1.7405 -1.6022
-1.4797 -1.3637 -1.2959 -1.2449 -1.1929 -1.1326
-1.0648 -0.9980 -0.9813 -0.9349 -0.8550 -0.8077
-0.7344 -0.6675 -0.5914 -0.5033 -0.4596 -0.4318
-0.3965 -0.3687 -0.3362 -0.3241 -0.3343 -0.3640
-0.4308 -0.4957 -0.5644 -0.6506 -0.7778 -0.9271
-1.0292 -1.1405 -1.2816 -1.3883 -1.4671 -1.5859
-1.7065 -1.8299 -1.9589 -2.0582 -2.1556 -2.2456
-2.3959 -2.5332 -2.6520 -2.8051 -2.9285 -3.0872
-3.2124 -3.3247 -3.4750 -3.5641 -3.6160 -3.6225
-3.6095 -3.5928 -3.5686 -3.5909 -3.5779 -3.5473
-3.5417 -3.5064 -3.4628 -3.4061 -3.3393 -3.2734
-3.1760 -3.0535 -2.9375 -2.7982 -2.6228 -2.4261
-2.2015 -1.9769 -1.7746 -1.5918 -1.4275 -1.2633
-1.1120 -0.9515 -0.7779 -0.5737 -0.3325 -0.1023
0.1575 0.3868 0.6039 0.8285 1.0160 1.2118
1.3770 1.5589 1.7092 1.7946 1.8447 1.8447
1.8679 1.8698 1.8856 1.9172 1.9237 1.9998
2.0573 2.0666 2.0815 2.0657 2.0472 2.0240
2.0017 1.9971 1.9396 1.8941 1.8598 1.7708
1.6715 1.5369 1.4089 1.3347 1.2632 1.1964
1.1454 1.1361 1.1900 1.2206 1.2355 1.2401
1.2002 1.1669 1.1372 1.1622 1.1715 1.1298
1.1057 1.0741 1.0872 1.0779 1.0779 1.0946
1.0529 1.0668 1.0622 0.9898 0.9332 0.8655
0.7699 0.6762 0.5807 0.4582 0.2977 0.1427
-0.0141 -0.2006 -0.3908 -0.5597 -0.6812 -0.7898
-0.8714 -0.9661 -1.0616 -1.1433 -1.2955 -1.4114
-1.5024 -1.6072 -1.6657 -1.6823 -1.7065 -1.7380
-1.7361 -1.7315 -1.6841 -1.6405 -1.6024 -1.5180
-1.4252 -1.2720 -1.0939 -0.9324 -0.7542 -0.5732
-0.3913 -0.1862 0.0272 0.2295 0.4402 0.6434
0.8374 0.9998 1.1511 1.3311 1.4777 1.6067
1.7302 1.8610 2.0160 2.1543 2.2796 2.3780
2.4550 2.4995 2.5172 2.5562 2.5645 2.5868
2.6165 2.5887 2.5943 2.6286 2.6500 2.6333
2.6268 2.6575 2.6723 2.6928 2.6974 2.7141
2.7095 2.6956 2.7068 2.7058 2.7253 2.7625
2.8330 2.8961 2.9073 2.8943 2.9055 2.9296
2.9092 2.8888 2.8536 2.7821 2.7218 2.6337
2.5390 2.4463 2.3164 2.2143 2.0844 1.9536
1.8589 1.7392 1.6697 1.5806 1.4637 1.3486
1.2141 1.1120 1.0174 0.9348 0.8560 0.7567
0.6528 0.5423 0.4236 0.2965 0.1861 0.1063
0.0153 -0.0747 -0.1368 -0.1878 -0.2203 -0.2361
-0.2797 -0.3270 -0.3604 -0.4197 -0.4754 -0.5376
-0.5867 -0.6461 -0.6814 -0.7008 -0.7129 -0.6674
-0.6562 -0.5876 -0.5272 -0.5486 -0.5383 -0.5578
-0.5838 -0.6237 -0.6840 -0.7406 -0.8268 -0.9103
-0.9614 -0.9901 -0.9882 -0.9511 -0.9372 -0.9631
-0.9678 -1.0160 -1.1051 -1.1839 -1.3222 -1.4512
-1.5393 -1.6228 -1.6701 -1.6989 -1.7276 -1.7322
-1.7443 -1.7758 -1.7860 -1.8491 -1.9298 -1.9697
-2.0207 -2.0504 -2.0411 -2.0188 -1.9910 -1.9362
-1.8861 -1.8452 -1.8025 -1.7608 -1.7125 -1.6884
-1.6392 -1.5890 -1.5389 -1.4582 -1.4016 -1.3876
-1.4164 -1.4219 -1.3978 -1.4024 -1.3894 -1.3680
-1.3253 -1.2696 -1.2854 -1.3012 -1.3095 -1.3513
-1.3707 -1.3781 -1.4069 -1.4078 -1.3911 -1.3539
-1.2825 -1.2129 -1.1423 -1.0978 -1.0235 -0.9539
-0.9112 -0.8611 -0.8843 -0.9195 -0.9214 -0.8935
-0.8434 -0.8304 -0.8183 -0.7867 -0.8043 -0.8461
-0.8609 -0.9008 -0.9323 -0.9611 -1.0390 -1.0956
-1.1142 -1.1503 -1.2329 -1.2747 -1.2802 -1.3108
-1.2997 -1.2588 -1.2328 -1.1994 -1.1409 -1.1094
-1.0759 -1.0397 -1.0564 -1.0648 -1.0898 -1.1260
-1.1557 -1.2215 -1.2271 -1.1751 -1.1278 -1.1138
-1.1045 -1.0655 -1.0572 -1.0321 -1.0210 -1.0562
-1.0989 -1.1703 -1.2223 -1.2492 -1.3011 -1.3716
-1.3892 -1.4152 -1.4820 -1.4718 -1.4439 -1.4736
-1.5116 -1.5562 -1.5812 -1.5812 -1.6053 -1.6712
-1.7315 -1.7630 -1.8113 -1.8344 -1.8261 -1.8390
-1.8455 -1.8780 -1.9327 -1.9476 -1.9271 -1.8863
-1.8213 -1.8009 -1.7702 -1.6821 -1.6366 -1.5855
-1.5373 -1.5122 -1.4686 -1.4240 -1.3906 -1.3637
-1.3080 -1.2486 -1.2170 -1.1400 -1.0202 -0.9321
-0.8309 -0.7186 -0.5859 -0.4216 -0.2509 -0.0040
0.2660 0.5194 0.7876 1.0131 1.2033 1.3926
1.5625 1.7119 1.8613 2.0618 2.2706 2.4534
2.6334 2.7522 2.8784 3.0223 3.1132 3.2153
3.3016 3.4075 3.5476 3.6655 3.8028 3.8836
3.8975 3.9170 3.9346 3.9458 3.9235 3.9412
3.9644 3.9523 3.9811 4.0090 4.0108 3.9728
3.9134 3.8466 3.7696 3.7075 3.6444 3.5794
3.5164 3.4607 3.3939 3.3113 3.2195 3.1091
3.0144 2.9105 2.7917 2.6618 2.5440 2.4252
2.3009 2.2016 2.0745 1.9363 1.8249 1.7266
1.6227 1.5410 1.4789 1.4167 1.3954 1.3360
1.2265 1.1495 1.0623 0.9742 0.9046 0.8090
0.6921 0.5650 0.4499 0.3228 0.1818 0.0556
-0.0697 -0.1708 -0.2172 -0.2274 -0.1967 -0.1373
-0.1336 -0.1512 -0.1586 -0.1809 -0.1874 -0.1920
-0.2235 -0.2708 -0.3052 -0.3441 -0.3757 -0.4091
-0.4499 -0.4712 -0.4851 -0.5055 -0.4888 -0.4507
-0.4312 -0.3783 -0.3848 -0.4200 -0.4339 -0.4757
-0.5017 -0.5267 -0.5870 -0.6798 -0.7605 -0.8681
-1.0194 -1.2133 -1.3924 -1.5056 -1.6216 -1.6939
-1.7644 -1.8711 -1.9435 -2.0084 -2.0595 -2.0938
-2.1494 -2.1754 -2.1949 -2.2181 -2.2403 -2.2858
-2.3303 -2.4008 -2.4073 -2.4277 -2.4797 -2.4639
-2.4843 -2.4713 -2.4453 -2.4350 -2.3896 -2.3608
-2.3348 -2.3134 -2.3023 -2.3301 -2.3468 -2.3338
-2.3607 -2.3504 -2.3272 -2.3513 -2.3634 -2.3736
-2.3578 -2.3216 -2.3160 -2.3058 -2.3067 -2.2816
-2.2436 -2.2176 -2.1619 -2.1665 -2.1823 -2.1730
-2.1952 -2.2268 -2.2360 -2.1933 -2.1079 -2.0253
-1.9724 -1.8870 -1.8119 -1.7413 -1.6513 -1.5863
-1.4889 -1.3729 -1.2476 -1.1362 -1.0341 -0.9246
-0.8893 -0.8726 -0.8587 -0.8772 -0.8642 -0.8336
-0.8094 -0.7742 -0.7157 -0.6609 -0.6126 -0.5625
-0.5616 -0.5606 -0.5541 -0.5550 -0.5587 -0.5986
-0.6608 -0.7155 -0.7174 -0.7322 -0.7554 -0.7646
-0.8027 -0.8268 -0.8425 -0.8769 -0.9270 -0.9576
-0.9752 -0.9659 -0.9622 -0.9705 -0.9658 -0.9946
-0.9927 -0.9946 -1.0168 -1.0103 -1.0047 -1.0066
-1.0279 -1.0622 -1.0826 -1.1197 -1.1930 -1.2199
-1.2440 -1.3080 -1.3470 -1.3646 -1.3674 -1.3804
-1.3831 -1.3766 -1.3998 -1.4146 -1.4239 -1.4480
-1.4666 -1.4925 -1.5315 -1.5584 -1.5788 -1.6224
-1.6567 -1.6548 -1.6780 -1.7337 -1.7717 -1.8051
-1.8487 -1.9006 -1.9396 -1.9517 -1.9730 -2.0129
-2.0648 -2.0862 -2.1010 -2.1223 -2.1037 -2.0545
-2.0026 -1.9599 -1.9125 -1.8772 -1.8178 -1.7612
-1.7380 -1.7120 -1.6897 -1.6266 -1.5421 -1.4530
-1.4011 -1.3342 -1.2312 -1.1514 -1.0725 -1.0233
-0.9518 -0.9268 -0.8952 -0.8618 -0.8803 -0.8451
-0.8283 -0.7903 -0.7671 -0.7745 -0.7578 -0.7522
-0.7215 -0.7067 -0.7122 -0.7011 -0.7354 -0.7474
-0.7289 -0.7604 -0.7557 -0.7409 -0.7251 -0.6926
-0.6499 -0.6007 -0.5775 -0.5320 -0.5106 -0.4828
-0.4494 -0.4419 -0.3881 -0.3797 -0.3973 -0.3667
-0.3556 -0.3509 -0.3203 -0.2804 -0.2553 -0.2543
-0.2218 -0.1838 -0.1912 -0.1550 -0.1234 -0.1243
-0.1308 -0.1614 -0.1633 -0.1967 -0.2403 -0.2551
-0.2820 -0.2606 -0.2337 -0.2346 -0.2420 -0.2355
-0.1854 -0.1427 -0.1028 -0.0434 0.0151 0.0884
0.1914 0.3019 0.3984 0.4782 0.5451 0.6128
0.6564 0.6899 0.7539 0.7966 0.8180 0.8412
0.8458 0.8551 0.8487 0.8283 0.8301 0.8366
0.8339 0.8283 0.8218 0.8005 0.7578 0.7124
0.6465 0.5788 0.5333 0.4387 0.3329 0.2837
0.2559 0.2337 0.2244 0.2105 0.2096 0.2115
0.1864 0.2031 0.2189 0.2226 0.2171 0.1958
0.1939 0.1652 0.1633 0.1856 0.1838 0.1792
0.1912 0.2163 0.2293 0.2460 0.2479 0.2628
0.2980 0.3435 0.3918 0.4113 0.4354 0.4791
0.4865 0.4800 0.5218 0.5413 0.5756 0.6341
0.7028 0.8040 0.8875 0.9757 1.0295 1.1121
1.2031 1.2476 1.3052 1.3766 1.4657 1.5353
1.6291 1.7200 1.7952 1.8936 1.9743 2.0839
2.1915 2.2704 2.3586 2.4365 2.4932 2.5331
2.5442 2.5591 2.6036 2.6361 2.6983 2.7754
2.8264 2.8914 2.9526 3.0269 3.0882 3.1086
3.1197 3.1392 3.1495 3.1615 3.1504 3.0910
3.0539 2.9946 2.9510 2.8935 2.8164 2.7849
2.7357 2.6838 2.6226 2.5827 2.5252 2.4713
2.4417 2.3535 2.2635 2.1726 2.0501 1.9109
1.7875 1.6344 1.4609 1.3106 1.1223 0.9701
0.8151 0.6481 0.5331 0.3939 0.2426 0.0654
-0.0970 -0.2287 -0.3772 -0.5089 -0.6509 -0.8068
-0.9599 -1.1111 -1.2540 -1.3886 -1.4693 -1.5546
-1.6715 -1.7727 -1.9118 -2.0399 -2.1336 -2.2403
-2.3544 -2.4843 -2.5715 -2.6838 -2.8415 -2.9529
-3.0911 -3.2396 -3.3881 -3.5235 -3.6404 -3.7629
-3.8501 -3.9151 -3.9327 -3.9512 -3.9698 -3.9558
-3.9790 -4.0161 -4.0504 -4.0940 -4.1070 -4.1358
-4.1348 -4.0958 -4.1348 -4.1459 -4.1552 -4.1802
-4.1672 -4.1820 -4.1570 -4.1198 -4.1458 -4.1625
-4.1541 -4.1866 -4.1866 -4.1467 -4.1420 -4.1142
-4.0650 -4.0111 -3.9397 -3.8598 -3.8190 -3.8041
-3.7651 -3.7252 -3.6677 -3.6222 -3.5804 -3.5090
-3.4403 -3.3595 -3.3066 -3.2611 -3.1887 -3.1238
-3.0551 -3.0077 -2.9771 -2.9019 -2.8063 -2.7608
-2.7005 -2.6337 -2.5854 -2.5214 -2.4592 -2.3673
-2.2578 -2.1260 -1.9998 -1.9014 -1.7984 -1.7084
-1.6128 -1.4968 -1.3390 -1.1803 -1.0513 -0.8694
-0.6912 -0.5724 -0.4638 -0.3580 -0.2300 -0.1186
-0.0035 0.1496 0.2916 0.4540 0.6183 0.7788
0.9301 1.0619 1.1826 1.2986 1.4016 1.4591
1.5213 1.5891 1.6578 1.7376 1.8406 1.9130
1.9510 2.0067 2.0448 2.0587 2.0792 2.1070
2.1015 2.1052 2.0987 2.0449 1.9930 1.9382
1.8900 1.8297 1.7499 1.6822 1.6117 1.5708
1.5319 1.4642 1.4187 1.3435 1.2424 1.1190
0.9882 0.8648 0.7108 0.5855 0.4686 0.3554
0.2106 0.0668 -0.0250 -0.1707 -0.2950 -0.3683
-0.4704 -0.5780 -0.6940 -0.8248 -0.9417 -1.0503
-1.1672 -1.2693 -1.3388 -1.4140 -1.4929 -1.5615
-1.6487 -1.7229 -1.7443 -1.7415 -1.7591 -1.7646
-1.7581 -1.7498 -1.7312 -1.7200 -1.7135 -1.6977
-1.6866 -1.6792 -1.6541 -1.6058 -1.5529 -1.5074
-1.4619 -1.4267 -1.3571 -1.3069 -1.2614 -1.1826
-1.1426 -1.0526 -0.9709 -0.9097 -0.7974 -0.6944
-0.5904 -0.4660 -0.3677 -0.2758 -0.1505 -0.0540
0.0695 0.2328 0.3534 0.4704 0.6272 0.7534
0.8639 0.9753 1.0514 1.1460 1.2323 1.3205
1.3892 1.4412 1.5247 1.5850 1.6778 1.7920
1.8663 1.9052 1.9266 1.9767 2.0436 2.1364
2.2097 2.2487 2.3025 2.3443 2.3833 2.3954
2.4167 2.4306 2.4242 2.4622 2.4882 2.5133
2.5449 2.5783 2.6201 2.6089 2.5857 2.5672
2.5227 2.5078 2.4754 2.4067 2.4002 2.3854
2.3260 2.3084 2.2602 2.1739 2.0923 1.9930
1.8937 1.7796 1.6729 1.5263 1.3611 1.2256
1.0651 0.9092 0.7617 0.6216 0.4787 0.3423
0.1901 0.0203 -0.1253 -0.3007 -0.4789 -0.6496
-0.8407 -1.0189 -1.1738 -1.2843 -1.3882 -1.4865
-1.5682 -1.6554 -1.7333 -1.8168 -1.8910 -1.9439
-1.9949 -2.0218 -2.0441 -2.0459 -2.0274 -2.0236
-1.9921 -1.9586 -1.9271 -1.8760 -1.8259 -1.7721
-1.6876 -1.5762 -1.4769 -1.3683 -1.2616 -1.1502
-1.0305 -0.9145 -0.7679 -0.6593 -0.5405 -0.3837
-0.2482 -0.1275 -0.0412 0.0433 0.1463 0.2697
0.3792 0.4451 0.5194 0.5825 0.6697 0.7700
0.8108 0.8888 0.9500 0.9807 1.0549 1.0893
1.1171 1.1366 1.1728 1.2174 1.2258 1.2276
1.2211 1.2518 1.2666 1.2880 1.3084 1.2908
1.2769 1.2454 1.2333 1.2278 1.1786 1.1267
1.0970 1.0497 0.9847 0.9458 0.8966 0.8382
0.7899 0.7268 0.6804 0.6294 0.5775 0.5441
0.4754 0.4263 0.3845 0.3084 0.2472 0.1767
0.0988 0.0180 -0.0970 -0.2111 -0.3234 -0.4663
-0.6166 -0.7734 -0.9145 -1.0100 -1.1065 -1.2067
-1.2949 -1.3858 -1.4702 -1.5695 -1.6595 -1.7569
-1.8655 -1.9490 -2.0631 -2.1679 -2.2579 -2.3591
-2.4435 -2.5168 -2.6068 -2.6903 -2.7181 -2.7311
-2.7487 -2.7598 -2.7450 -2.7347 -2.6985 -2.6531
-2.6178 -2.5565 -2.5296 -2.4813 -2.4525 -2.4284
-2.3625 -2.3124 -2.2455 -2.1871 -2.1286 -2.0571
-1.9476 -1.8288 -1.7082 -1.5652 -1.4279 -1.2785
-1.1402 -1.0019 -0.8785 -0.7773 -0.6483 -0.5119
-0.3745 -0.2242 -0.1073 -0.0126 0.1183 0.2408
0.3484 0.4654 0.5637 0.6519 0.7354 0.8320
0.9359 1.0194 1.0965 1.1652 1.2376 1.2858
1.3666 1.4612 1.5318 1.6246 1.6664 1.7007
1.6989 1.6915 1.6980 1.6590 1.6414 1.5941
1.5672 1.5589 1.5218 1.5088 1.4977 1.4633
1.4179 1.4179 1.3994 1.3622 1.3456 1.3168
1.2788 1.2463 1.2333 1.1795 1.1350 1.0831
1.0218 0.9745 0.9263 0.9430 0.9467 0.9551
0.9653 0.9551 0.9496 0.9505 0.9468 0.9227
0.8930 0.8531 0.8754 0.8624 0.8077 0.7576
0.6806 0.6147 0.5451 0.5090 0.4728 0.4273
0.4060 0.3856 0.3726 0.3671 0.3504 0.3550
0.3773 0.3894 0.3820 0.3755 0.4015 0.3839
0.3663 0.3496 0.3171 0.2986 0.2698 0.2893
0.3163 0.3237 0.3256 0.3237 0.3302 0.3507
0.3841 0.3897 0.3953 0.3897 0.3795 0.3740
0.3294 0.2886 0.2255 0.1513 0.1049 0.0595
0.0103 -0.0426 -0.1066 -0.1483 -0.1919 -0.2578
-0.2958 -0.3329 -0.3905 -0.4656 -0.5287 -0.5946
-0.6140 -0.6177 -0.6604 -0.6743 -0.7198 -0.7661
-0.8125 -0.8533 -0.8747 -0.9081 -0.9099 -0.9600
-1.0379 -1.0769 -1.0992 -1.1585 -1.2328 -1.2671
-1.3190 -1.3608 -1.4164 -1.4749 -1.5324 -1.6010
-1.6586 -1.7309 -1.7653 -1.8321 -1.9146 -1.9916
-2.1002 -2.1623 -2.2115 -2.2765 -2.3349 -2.3989
-2.4601 -2.5093 -2.5501 -2.6141 -2.6642 -2.6930
-2.7570 -2.8052 -2.8349 -2.8702 -2.8980 -2.9305
-2.9509 -2.9750 -2.9750 -2.9601 -2.9712 -2.9879
-3.0296 -3.0398 -3.0426 -3.0649 -3.0574 -3.0908
-3.1131 -3.1038 -3.1158 -3.1149 -3.1102 -3.0787
-3.0601 -3.0517 -3.0508 -3.0582 -3.0053 -2.9728
-2.9579 -2.9496 -2.9598 -2.9570 -2.9662 -2.9439
-2.9300 -2.8984 -2.8492 -2.8334 -2.7963 -2.7518
-2.6942 -2.6478 -2.5828 -2.4956 -2.4111 -2.3304
-2.2561 -2.1494 -2.0751 -1.9842 -1.8617 -1.7679
-1.6529 -1.5563 -1.4663 -1.3252 -1.1944 -1.0663
-0.9438 -0.8250 -0.6710 -0.5262 -0.4037 -0.2914
-0.1596 -0.0371 0.0437 0.1439 0.2562 0.3342
0.4205 0.5318 0.6423 0.7759 0.8864 0.9875
1.0915 1.1834 1.2910 1.3912 1.4859 1.5397
1.6159 1.6808 1.7180 1.7634 1.7644 1.7997
1.7950 1.7932 1.8275 1.8081 1.7821 1.7617
1.7367 1.6921 1.6532 1.6328 1.6124 1.5957
1.5586 1.4974 1.4417 1.3517 1.2691 1.1856
1.1040 1.0381 0.9527 0.9249 0.8795 0.8127
0.7524 0.6577 0.5622 0.4944 0.4406 0.3692
0.3005 0.2449 0.1799 0.0946 0.0445 0.0120
-0.0186 -0.0390 -0.0557 -0.0816 -0.1373 -0.1735
-0.2162 -0.2681 -0.3117 -0.3358 -0.3451 -0.3748
-0.4072 -0.4351 -0.4582 -0.4981 -0.5306 -0.5519
-0.5825 -0.6094 -0.6456 -0.6911 -0.7328 -0.7495
-0.7857 -0.8135 -0.8255 -0.8701 -0.9025 -0.9341
-0.9563 -0.9619 -0.9470 -0.9321 -0.9479 -0.9043
-0.8746 -0.8922 -0.8486 -0.8318 -0.8151 -0.7668
-0.7260 -0.6796 -0.6406 -0.5858 -0.5385 -0.5041
-0.4772 -0.4447 -0.3909 -0.3361 -0.3222 -0.3194
-0.2813 -0.2581 -0.2386 -0.2163 -0.1931 -0.1755
-0.1615 -0.1541 -0.1522 -0.1374 -0.1429 -0.1448
-0.1754 -0.1939 -0.1716 -0.1995 -0.2124 -0.2189
-0.2523 -0.2875 -0.3330 -0.3831 -0.4137 -0.4350
-0.4740 -0.4721 -0.4953 -0.5398 -0.5704 -0.6270
-0.6688 -0.7411 -0.8014 -0.8478 -0.9221 -0.9573
-0.9712 -0.9814 -0.9962 -1.0018 -1.0148 -1.0352
-1.0333 -1.0537 -1.0592 -1.0769 -1.1223 -1.1409
-1.1761 -1.2058 -1.2280 -1.2809 -1.3301 -1.3626
-1.3792 -1.3913 -1.4098 -1.3801 -1.3216 -1.3068
-1.2604 -1.2047 -1.1546 -1.0961 -1.0293 -0.9364
-0.8854 -0.7926 -0.6970 -0.6255 -0.5494 -0.4742
-0.3694 -0.2700 -0.1318 0.0065 0.1383 0.2580
0.3777 0.5040 0.5986 0.7026 0.7972 0.8910
0.9569 1.0079 1.0748 1.1267 1.1889 1.2196
1.2279 1.2576 1.2855 1.3273 1.3663 1.3783
1.3626 1.3635 1.3422 1.3385 1.3821 1.3756
1.3719 1.3590 1.3441 1.3497 1.3627 1.3497
1.3340 1.3210 1.2969 1.3108 1.2774 1.2700
1.2673 1.2404 1.2125 1.1495 1.1346 1.0910
1.0651 1.0595 1.0140 0.9667 0.9352 0.9148
0.8703 0.8499 0.8091 0.7692 0.7052 0.6319
0.6012 0.5437 0.5103 0.4937 0.4695 0.4120
0.3656 0.3100 0.2126 0.1597 0.0669 -0.0407
-0.0945 -0.1920 -0.2801 -0.3534 -0.4629 -0.5399
-0.6327 -0.7125 -0.7978 -0.9157 -1.0038 -1.1198
-1.2191 -1.3091 -1.3916 -1.4686 -1.5772 -1.6690
-1.7553 -1.8305 -1.9130 -2.0262 -2.1162 -2.1747
-2.2322 -2.2823 -2.3259 -2.3352 -2.3565 -2.3927
-2.3852 -2.3843 -2.3796 -2.3945 -2.3824 -2.3536
-2.3601 -2.3257 -2.2951 -2.2468 -2.1661 -2.1067
-2.0473 -1.9767 -1.8821 -1.7726 -1.6668 -1.5591
-1.4663 -1.3763 -1.2742 -1.1851 -1.1034 -1.0180
-0.9456 -0.8779 -0.8045 -0.7321 -0.6458 -0.5864
-0.5381 -0.4936 -0.4722 -0.4138 -0.3339 -0.3033
-0.2931 -0.2430 -0.2355 -0.2411 -0.2206 -0.2290
-0.2085 -0.1770 -0.1807 -0.1667 -0.1435 -0.1222
-0.0925 -0.0720 -0.0256 0.0059 0.0087 0.0487
0.0914 0.1192 0.1359 0.1146 0.1155 0.1239
0.1035 0.0952 0.0813 0.0627 0.0498 0.0396
0.0015 -0.0458 -0.0690 -0.0847 -0.1061 -0.1422
-0.1571 -0.1561 -0.1960 -0.2257 -0.2739 -0.3760
-0.4456 -0.5226 -0.6126 -0.6905 -0.7805 -0.8538
-0.9132 -0.9735 -1.0449 -1.1377 -1.1878 -1.2184
-1.2796 -1.2991 -1.3344 -1.3659 -1.3584 -1.3742
-1.3955 -1.4187 -1.4233 -1.4224 -1.3862 -1.3277
-1.2971 -1.2386 -1.1653 -1.1003 -1.0307 -0.9787
-0.9314 -0.8488 -0.7894 -0.7439 -0.6381 -0.5555
-0.4952 -0.4135 -0.3541 -0.2835 -0.1768 -0.0868
-0.0394 0.0302 0.0914 0.1351 0.2130 0.2557
0.2808 0.2910 0.3068 0.3523 0.3616 0.3792
0.3728 0.3440 0.3357 0.3413 0.3654 0.3422
0.3311 0.3330 0.3051 0.2838 0.2820 0.2838
0.2532 0.2226 0.2171 0.1976 0.1559 0.1225
0.0742 0.0278 -0.0148 -0.0696 -0.0974 -0.1493
-0.2069 -0.2764 -0.3590 -0.4240 -0.4852 -0.5409
-0.6438 -0.7311 -0.7830 -0.8572 -0.8953 -0.9426
-0.9973 -1.0279 -1.0743 -1.1244 -1.2088 -1.2933
-1.3266 -1.3433 -1.3415 -1.3433 -1.3628 -1.3553
-1.3739 -1.3980 -1.3813 -1.3803 -1.3794 -1.3729
-1.3487 -1.3292 -1.3014 -1.2763 -1.2782 -1.2317
-1.2104 -1.1983 -1.1333 -1.0702 -1.0052 -0.9533
-0.9152 -0.8827 -0.8409 -0.8019 -0.7769 -0.7175
-0.6757 -0.6441 -0.5996 -0.5578 -0.5179 -0.5012
-0.4770 -0.4436 -0.3629 -0.3192 -0.3183 -0.2468
-0.1995 -0.1661 -0.1447 -0.1410 -0.1178 -0.1196
-0.0992 -0.0769 -0.0490 -0.0128 -0.0119 -0.0017
0.0002 0.0002 0.0197 0.0262 0.0420 0.0921
0.1469 0.1850 0.2295 0.2797 0.3363 0.3873
0.4393 0.5201 0.5822 0.6500 0.7493 0.8356
0.9238 1.0296 1.1326 1.2310 1.3229 1.4333
1.5632 1.6932 1.8110 1.9094 2.0542 2.1980
2.3159 2.4412 2.5748 2.6983 2.7837 2.8839
2.9860 3.0881 3.1512 3.2106 3.2858 3.3303
3.3842 3.4204 3.4668 3.5123 3.5132 3.5160
3.5457 3.5448 3.5114 3.5124 3.5087 3.4781
3.4372 3.3974 3.3538 3.3120 3.3092 3.2907
3.2647 3.2415 3.2082 3.2110 3.1738 3.1191
3.0662 2.9939 2.9289 2.8501 2.8334 2.7907
2.7128 2.6905 2.6191 2.5458 2.4762 2.3825
2.3046 2.2266 2.1459 2.0373 1.9232 1.8314
1.7516 1.6495 1.5456 1.4640 1.3749 1.2617
1.1439 1.0427 0.9369 0.8358 0.7189 0.6131
0.5120 0.3942 0.2819 0.1706 0.0666 -0.0568
-0.1458 -0.2275 -0.3193 -0.3731 -0.4474 -0.5271
-0.6051 -0.6849 -0.7164 -0.7693 -0.8361 -0.8797
-0.9576 -1.0086 -1.0457 -1.1079 -1.1608 -1.2183
-1.2619 -1.3055 -1.3519 -1.3908 -1.4428 -1.4743
-1.5198 -1.5857 -1.5986 -1.6098 -1.6283 -1.6487
-1.6858 -1.7081 -1.7099 -1.7210 -1.7609 -1.7785
-1.8036 -1.8193 -1.8137 -1.8471 -1.8443 -1.8443
-1.8573 -1.8415 -1.8461 -1.8545 -1.8517 -1.8377
-1.8312 -1.8229 -1.8145 -1.7996 -1.7866 -1.7987
-1.7847 -1.7847 -1.7931 -1.7866 -1.8079 -1.8125
-1.8208 -1.8626 -1.8923 -1.9238 -1.9173 -1.9423
-1.9804 -1.9822 -2.0555 -2.0889 -2.1121 -2.1659
-2.1993 -2.2382 -2.2605 -2.2930 -2.3282 -2.3570
-2.3783 -2.3987 -2.4284 -2.4543 -2.4766 -2.5128
-2.5480 -2.5730 -2.6018 -2.6083 -2.6361 -2.6630
-2.6621 -2.7066 -2.7056 -2.7001 -2.7483 -2.7316
-2.7084 -2.7148 -2.7260 -2.7278 -2.7102 -2.7269
-2.7315 -2.7370 -2.7602 -2.7769 -2.8057 -2.8029
-2.7713 -2.7787 -2.7870 -2.7852 -2.7833 -2.7610
-2.7434 -2.7220 -2.7127 -2.7164 -2.7183 -2.6950
-2.6969 -2.7433 -2.7776 -2.8258 -2.8750 -2.9093
-2.9195 -2.9130 -2.9297 -2.9297 -2.9064 -2.9250
-2.9380 -2.9148 -2.9240 -2.9333 -2.9648 -2.9815
-2.9741 -3.0316 -3.0325 -3.0214 -3.0714 -3.1030
-3.1290 -3.1475 -3.1586 -3.1438 -3.1465 -3.1669
-3.1790 -3.1855 -3.1817 -3.2077 -3.1965 -3.1956
-3.2299 -3.2457 -3.2791 -3.2689 -3.2763 -3.3059
-3.3004 -3.3226 -3.3347 -3.3541 -3.3513 -3.3495
-3.3355 -3.3095 -3.3253 -3.2965 -3.3067 -3.3150
-3.2677 -3.2352 -3.1842 -3.1387 -3.1090 -3.0709
-3.0189 -2.9586 -2.9159 -2.8648 -2.8166 -2.7887
-2.7163 -2.6319 -2.5558 -2.5047 -2.4833 -2.4351
-2.3664 -2.3033 -2.3107 -2.3060 -2.2689 -2.2680
-2.2253 -2.1668 -2.1436 -2.1203 -2.0554 -2.0043
-1.9987 -1.9904 -1.9514 -1.8716 -1.8084 -1.7917
-1.8038 -1.8038 -1.8121 -1.7870 -1.7072 -1.6719
-1.6153 -1.5550 -1.5049 -1.4278 -1.3814 -1.3294
-1.2496 -1.1549 -1.0426 -0.9331 -0.8227 -0.7187
-0.6194 -0.4932 -0.3791 -0.2621 -0.1498 -0.0477
0.0952 0.2483 0.3949 0.5499 0.7095 0.8599
1.0390 1.2014 1.3406 1.5095 1.6534 1.7842
1.9123 2.0330 2.1666 2.2863 2.4116 2.5026
2.5917 2.7197 2.7996 2.8766 2.9453 3.0075
3.0864 3.1736 3.2757 3.3379 3.3917 3.4790
3.5783 3.6395 3.7045 3.7630 3.8094 3.8586
3.8771 3.9245 3.9496 3.9607 3.9681 3.9515
3.9654 3.9691 3.9756 3.9497 3.9302 3.9200
3.8885 3.9107 3.8987 3.8690 3.8635 3.8514
3.8551 3.8366 3.7986 3.7513 3.7374 3.7346
3.6910 3.6687 3.6465 3.5945 3.5398 3.4897
3.4452 3.3830 3.3496 3.3301 3.3042 3.2903
3.2495 3.2086 3.1892 3.1613 3.1131 3.0741
3.0389 2.9842 2.9368 2.9359 2.9220 2.8664
2.8302 2.7949 2.7411 2.6790 2.6447 2.6345
2.6039 2.5853 2.5983 2.5918 2.5789 2.5761
2.5575 2.5399 2.5140 2.4843 2.4685 2.4676
2.4472 2.4185 2.4129 2.3749 2.3164 2.2877
2.2645 2.2385 2.2283 2.1866 2.1504 2.1115
2.0409 2.0215 1.9639 1.9268 1.9046 1.8369
1.8109 1.7469 1.6940 1.6625 1.6114 1.5892
1.5577 1.5233 1.5020 1.4584 1.4232 1.4111
1.3963 1.3963 1.3815 1.3592 1.3629 1.3527
1.3305 1.3129 1.3129 1.3147 1.3027 1.3129
1.2814 1.2498 1.2684 1.2295 1.2118 1.1924
1.1488 1.1182 1.0746 1.0106 0.9493 0.9577
0.9373 0.9113 0.8928 0.8603 0.8436 0.8139
0.7908 0.7453 0.7193 0.6906 0.6498 0.6164
0.5663 0.5431 0.5116 0.4819 0.4689 0.4624
0.4513 0.4198 0.3919 0.3483 0.3279 0.3122
0.2834 0.2797 0.2779 0.2825 0.2492 0.2260
0.1935 0.1490 0.1583 0.1453 0.1397 0.1407
0.1620 0.1797 0.1899 0.2038 0.2057 0.2521
0.2791 0.2976 0.3218 0.3144 0.3023 0.3051
0.3005 0.3033 0.3070 0.2903 0.3265 0.3265
0.3006 0.2941 0.2570 0.2681 0.2654 0.2273
0.1837 0.1392 0.1058 0.1049 0.1133 0.0966
0.0780 0.0372 0.0168 0.0168 0.0141 -0.0035
-0.0342 -0.0527 -0.0592 -0.0712 -0.0814 -0.0610
-0.0907 -0.1064 -0.1046 -0.1593 -0.1593 -0.1862
-0.2483 -0.2604 -0.3058 -0.3411 -0.3875 -0.4580
-0.4700 -0.4978 -0.5340 -0.5665 -0.6286 -0.6769
-0.7075 -0.7427 -0.8133 -0.8513 -0.9051 -0.9793
-0.9802 -1.0090 -1.0609 -1.1287 -1.1973 -1.2465
-1.3114 -1.3643 -1.3903 -1.4302 -1.4932 -1.5276
-1.5582 -1.6138 -1.6927 -1.7428 -1.7938 -1.8606
-1.8949 -1.9209 -1.9506 -2.0025 -2.0257 -2.0443
-2.0916 -2.1120 -2.1509 -2.1945 -2.2446 -2.3133
-2.3290 -2.3643 -2.4162 -2.4626 -2.5220 -2.5637
-2.6185 -2.6435 -2.6769 -2.7316 -2.7725 -2.8290
-2.8680 -2.8949 -2.9339 -2.9858 -3.0173 -3.0619
-3.1268 -3.1500 -3.1620 -3.1787 -3.2019 -3.1991
-3.1945 -3.2167 -3.2186 -3.2250 -3.2547 -3.3002
-3.3262 -3.3373 -3.3670 -3.3706 -3.3539 -3.3400
-3.3316 -3.3428 -3.3632 -3.3613 -3.3473 -3.3455
-3.3204 -3.2796 -3.2406 -3.2016 -3.1644 -3.1301
-3.0800 -3.0261 -3.0011 -2.9732 -2.9713 -2.9398
-2.8674 -2.8154 -2.7356 -2.6446 -2.5750 -2.5249
-2.4553 -2.3792 -2.3309 -2.2724 -2.2279 -2.1638
-2.1007 -2.0441 -1.9606 -1.8928 -1.7963 -1.7313
-1.6719 -1.6301 -1.5884 -1.4677 -1.4027 -1.3526
-1.2737 -1.2023 -1.1456 -1.1150 -1.0769 -1.0333
-0.9906 -0.9655 -0.9525 -0.9265 -0.9145 -0.8875
-0.8476 -0.8337 -0.8179 -0.8448 -0.8661 -0.8522
-0.8614 -0.8559 -0.8252 -0.8196 -0.8484 -0.8697
-0.8808 -0.9319 -0.9430 -0.9114 -0.9235 -0.9030
-0.9067 -0.9197 -0.8946 -0.8983 -0.8890 -0.8844
-0.8899 -0.9178 -0.9335 -0.9419 -0.9836 -0.9929
-0.9984 -0.9845 -0.9789 -1.0160 -1.0373 -1.0679
-1.0689 -1.0475 -1.0419 -1.0382 -1.0660 -1.1235
-1.1708 -1.1848 -1.2181 -1.2710 -1.3091 -1.3656
-1.4334 -1.4872 -1.5447 -1.6041 -1.6755 -1.7340
-1.7896 -1.8546 -1.8852 -1.9186 -1.9315 -1.9492
-1.9955 -2.0345 -2.0772 -2.1180 -2.1746 -2.2312
-2.2794 -2.3341 -2.3852 -2.4037 -2.3629 -2.3183
-2.3034 -2.2719 -2.2644 -2.2830 -2.2626 -2.2328
-2.2273 -2.1836 -2.1382 -2.1409 -2.1177 -2.0685
-2.0369 -2.0249 -2.0119 -1.9933 -1.9385 -1.9042
-1.8902 -1.8410 -1.8188 -1.7742 -1.7213 -1.7213
-1.6990 -1.6247 -1.5561 -1.5161 -1.4539 -1.3732
-1.3398 -1.3110 -1.2674 -1.2395 -1.1885 -1.1105
-1.0511 -0.9973 -0.9332 -0.8515 -0.7708 -0.7485
-0.6854 -0.6009 -0.5313 -0.4209 -0.3522 -0.2928
-0.2250 -0.1471 -0.0663 0.0024 0.1193 0.2381
0.3708 0.4998 0.6121 0.7151 0.7857 0.8896
0.9518 1.0075 1.0845 1.1514 1.2423 1.2961
1.3500 1.4391 1.5105 1.5644 1.6359 1.6767
1.7342 1.8271 1.8679 1.9162 1.9598 2.0006
2.0573 2.0953 2.1278 2.1269 2.1557 2.1724
2.1566 2.1891 2.1845 2.1901 2.2189 2.2272
2.2560 2.2579 2.2690 2.2774 2.2774 2.2951
2.2580 2.2004 2.1578 2.1132 2.0632 2.0298
2.0465 2.0586 2.0539 2.0261 1.9556 1.8860
1.8276 1.7775 1.7200 1.6550 1.6300 1.5919
1.5214 1.4676 1.4157 1.3943 1.3758 1.3313
1.2932 1.2469 1.2200 1.1931 1.1504 1.1272
1.0799 1.0363 1.0085 0.9658 0.9287 0.9018
0.8935 0.8907 0.8768 0.8759 0.8870 0.8536
0.8527 0.8787 0.8695 0.8769 0.8546 0.8463
0.8305 0.8074 0.8176 0.8055 0.8343 0.8612
0.8974 0.9689 1.0023 1.0246 0.9949 0.9560
0.9300 0.8781 0.8567 0.8317 0.8150 0.8262
0.8336 0.8104 0.7436 0.6944 0.6379 0.5850
0.5609 0.5015 0.4458 0.4041 0.3308 0.2733
0.2055 0.1137 0.0617 0.0089 -0.0598 -0.1535
-0.2556 -0.3409 -0.4300 -0.4921 -0.5599 -0.6415
-0.7092 -0.7677 -0.8048 -0.8679 -0.9143 -0.9319
-0.9783 -1.0163 -1.0729 -1.1118 -1.1443 -1.2454
-1.3197 -1.3790 -1.4653 -1.5126 -1.5210 -1.5191
-1.4940 -1.4615 -1.4708 -1.4652 -1.4773 -1.5097
-1.5580 -1.6461 -1.6944 -1.7426 -1.7853 -1.7982
-1.7398 -1.6711 -1.6627 -1.6228 -1.6107 -1.5986
-1.5448 -1.5346 -1.5429 -1.5717 -1.6051 -1.6115
-1.6264 -1.6004 -1.5373 -1.4723 -1.3971 -1.3294
-1.2588 -1.2384 -1.2170 -1.1827 -1.1706 -1.1038
-1.0629 -1.0341 -1.0026 -0.9803 -0.9589 -0.9747
-0.9617 -0.9468 -0.9310 -0.9134 -0.9013 -0.8772
-0.8215 -0.7305 -0.6683 -0.6043 -0.5505 -0.5282
-0.4901 -0.4502 -0.4103 -0.3267 -0.2599 -0.2330
-0.2033 -0.1847 -0.1596 -0.1383 -0.0622 0.0130
0.0251 0.0808 0.1170 0.1096 0.1142 0.1337
0.1718 0.1996 0.2089 0.2136 0.2238 0.2192
0.2229 0.2498 0.2164 0.1793 0.1738 0.1228
0.0717 0.0319 0.0291 0.0152 -0.0451 -0.0479
-0.0655 -0.1026 -0.1212 -0.1777 -0.2288 -0.2993
-0.3763 -0.4087 -0.4820 -0.5804 -0.6463 -0.6861
-0.7214 -0.7733 -0.8299 -0.9125 -1.0071 -1.0916
-1.1482 -1.2345 -1.3356 -1.3810 -1.4553 -1.5174
-1.5731 -1.6380 -1.6547 -1.6733 -1.7020 -1.7465
-1.7642 -1.7911 -1.8328 -1.8495 -1.8838 -1.8996
-1.8773 -1.8615 -1.8355 -1.7835 -1.7724 -1.7529
-1.7231 -1.7009 -1.6767 -1.6452 -1.5997 -1.5588
-1.4326 -1.3324 -1.2600 -1.1616 -1.1124 -1.0289
-0.9491 -0.8999 -0.8544 -0.8228 -0.7773 -0.7550
-0.7355 -0.6854 -0.6241 -0.5536 -0.4627 -0.3671
-0.3021 -0.2362 -0.1796 -0.1369 -0.0747 -0.0264
-0.0051 0.0172 0.0729 0.1221 0.1333 0.1389
0.1379 0.1370 0.1537 0.1862 0.1733 0.1686
0.1733 0.1418 0.1343 0.0954 0.0536 0.0388
0.0166 -0.0178 -0.0753 -0.1040 -0.1448 -0.1949
-0.2126 -0.2701 -0.3025 -0.3007 -0.3740 