Archivo de aceleración parte de la Red Nacional de Acelerógrafos (RENAC) Ecuador
          
Evento: 201604162358
Fecha del evento UTM (aammdd):                  2016    4   16
Hora del registro UTM (hhmmss): 23   59 20.00
Estación:                                      APO1 
Componente:                                        Z
Frecuencia de muestreo (Hz):            1.000000e+02
Unidades: cm/s^2
_____________________________________________
0.0551 5.8698 8.6624 7.5803 3.9772 0.7524
-1.7659 -5.3309 -8.6087 -9.5058 -7.5489 -2.9827
2.4908 6.0270 6.1693 3.5264 -1.1030 -5.6702
-8.9907 -11.6103 -12.5808 -10.6565 -5.9787 -1.2387
0.6010 0.5871 0.9543 1.4591 2.5281 4.4757
7.0442 11.1642 15.0462 16.7604 15.9256 13.1024
10.4921 8.3791 6.1750 3.7413 1.8264 0.9219
0.4543 1.7781 5.2167 8.8301 10.2459 8.8171
5.6239 1.5420 -2.0054 -5.5100 -8.7180 -10.1282
-9.7759 -8.7096 -8.0719 -7.1767 -5.7098 -2.2991
4.0539 11.1170 15.9761 17.5360 17.2069 15.6768
13.8250 12.8499 12.4780 12.0764 10.9944 9.4038
7.1207 3.8495 0.7623 -2.0331 -4.3199 -5.7561
-6.2813 -6.0294 -6.2590 -6.2497 -6.5648 -7.6999
-7.8291 -7.7389 -9.9597 -13.9105 -16.5998 -17.4216
-15.8357 -9.8927 -0.7222 8.9680 18.1219 24.0834
25.5783 23.5759 17.7845 9.7499 1.3639 -5.2837
-7.3892 -5.0531 -1.2250 0.9373 1.1251 0.7876
0.8109 1.6085 2.8811 3.9065 5.5417 9.1867
13.2611 15.8454 15.8194 12.7118 8.1437 3.0495
-1.6329 -4.0611 -4.2814 -3.3099 -2.2139 -2.2167
-3.9866 -6.6574 -8.7927 -10.8071 -12.4878 -12.9173
-11.8975 -7.9430 -1.3660 3.6920 5.3290 5.9426
7.3974 9.4528 10.6482 9.0233 5.2491 2.7308
2.2967 1.4703 -1.3761 -5.1522 -6.9380 -6.5782
-7.0142 -7.8824 -7.2177 -5.1968 -1.9905 0.7146
2.0012 2.3396 0.2963 -2.3233 -4.8351 -7.7782
-8.1389 -5.7163 -2.4348 0.0686 2.4717 5.9772
10.4235 15.0576 18.8755 21.4840 21.2005 17.6605
11.3188 3.6802 -3.0947 -8.4269 -12.0022 -12.9494
-11.5076 -10.8476 -11.0642 -12.1193 -15.8916 -19.5236
-21.0500 -20.5284 -17.3232 -11.8078 -2.9412 6.8178
12.7171 14.5958 12.1361 4.5812 -4.3356 -11.7176
-16.7123 -16.2215 -10.7833 -3.4431 1.1194 -0.1272
-5.5170 -14.3269 -23.6583 -30.5838 -32.5323 -27.4362
-16.9493 -2.8044 12.6094 26.1351 35.4266 40.1499
40.5942 37.7153 33.5506 28.1236 22.8314 18.5534
14.1006 9.4312 3.7169 -2.8945 -8.2769 -12.1328
-15.8113 -17.9624 -18.2124 -18.4820 -19.1792 -20.9473
-22.7238 -22.9032 -20.4853 -13.6982 -2.8850 10.5385
23.2434 30.7276 32.1592 29.4820 23.7119 14.7803
4.8596 -2.8311 -6.5550 -6.0735 -2.2342 2.9409
7.4207 9.7744 7.8232 2.4575 -4.6065 -11.7951
-15.1482 -13.0687 -7.6779 -2.6710 0.4106 0.5984
-2.2127 -6.0222 -9.7230 -12.1967 -13.8281 -15.3917
-15.5664 -14.2780 -12.2766 -9.3288 -7.6490 -7.4277
-7.7215 -8.5572 -7.6861 -6.9238 -6.5213 -5.1092
-3.5029 -1.3146 0.4024 1.3227 0.6553 -1.3480
-2.3222 -1.8137 -1.1760 -1.0905 -1.2225 -1.8295
-2.3519 -1.2048 2.9785 8.8164 14.4545 17.2451
14.8272 10.2378 6.8624 5.5554 3.5540 -1.6686
-8.6136 -12.9409 -13.2458 -13.6837 -14.6151 -15.7000
-15.8505 -15.2993 -15.2091 -13.2393 -9.0272 -1.9817
5.2683 12.0646 17.8161 21.2965 22.9354 20.5027
16.7173 12.7089 11.0821 12.8335 14.0206 13.9695
10.0800 3.3385 -5.6470 -15.7834 -22.7434 -25.2756
-21.6808 -14.5126 -6.1183 1.3297 5.2052 6.4993
4.0628 0.4364 -2.5802 -5.1347 -5.2174 -2.1442
3.8732 10.9763 18.8463 23.9871 22.5332 14.6883
2.3050 -9.7204 -19.2088 -25.8843 -28.6685 -26.6522
-20.9258 -14.0216 -7.0384 -2.5530 -1.6857 -3.2586
-6.2287 -8.1939 -6.9705 -1.4356 5.8451 11.9730
16.7995 19.6590 20.5738 18.5677 12.9705 5.7596
-0.6937 -4.6752 -7.3134 -10.6674 -14.1516 -15.8202
-13.7834 -7.5997 1.4993 10.7405 15.4629 13.9886
8.5067 1.3924 -4.3274 -7.0121 -6.3623 -2.0619
3.8280 8.2000 9.1008 5.8797 -0.1720 -6.4208
-10.7788 -13.4607 -15.2595 -15.4352 -13.8706 -12.2280
-12.5320 -13.1669 -11.1366 -6.5035 -1.3246 2.5314
4.8015 4.9456 4.4817 4.6481 5.4690 7.2334
8.0161 5.7451 -0.6682 -8.3161 -14.7183 -17.9533
-16.5747 -12.9650 -6.0320 3.5197 10.9342 12.5564
8.1873 1.2794 -5.6954 -9.0532 -6.5414 0.6780
10.8748 19.5666 22.8407 20.4749 13.8421 4.8436
-3.3686 -9.4035 -12.5735 -11.1335 -6.8750 -1.2955
3.0486 3.4706 1.4934 -2.7642 -7.1650 -7.7171
-4.9776 -1.0110 2.6210 4.9934 6.0866 5.1291
3.0589 1.1811 -1.1410 -2.8459 -2.5364 -1.6728
-1.4078 -0.9913 -0.3322 2.1954 7.0972 12.0473
15.3251 15.4711 12.7074 7.7786 3.8464 2.9400
5.4109 12.0576 18.4654 23.5252 25.5676 21.7060
14.3919 6.7245 2.3415 -0.3404 -2.4172 -4.5850
-6.5874 -6.4944 -6.8058 -6.4377 -6.3568 -6.7426
-5.8204 -4.5068 -1.3062 2.6102 4.8060 4.4239
2.6465 0.8003 -1.5572 -4.6248 -8.2614 -9.1855
-5.3071 0.2770 4.4751 6.4096 7.4071 8.9363
11.6006 14.6143 15.5393 14.5474 11.9576 8.1378
5.0683 1.9364 -0.8840 -1.4622 -0.2397 2.0573
3.4713 3.5912 3.4620 1.5024 -2.5841 -7.9824
-12.5848 -14.5370 -15.5949 -17.1835 -18.5631 -17.9402
-14.9218 -10.0674 -4.2137 2.7045 9.4134 13.9267
16.6532 17.8059 18.8471 20.2480 22.4819 23.9032
22.5423 20.1393 18.5041 20.0017 22.3211 23.4348
25.1815 27.5344 28.2371 25.6752 21.4947 16.8384
11.9821 4.2497 -6.7708 -16.1747 -20.4546 -17.0912
-9.0632 0.8371 11.0182 18.3453 22.6792 22.1893
16.8849 9.4304 4.1103 3.9681 8.2146 15.0825
21.6362 25.8473 26.0509 20.8256 10.7524 0.0127
-8.4021 -13.0454 -14.2046 -14.0977 -12.7535 -11.7003
-11.7393 -12.3175 -11.8118 -9.7797 -7.5774 -4.3238
-0.3265 2.7273 4.4498 6.0609 8.7623 12.2149
14.6514 15.4025 14.4599 11.5697 7.9071 3.6505
-3.0446 -10.6320 -15.1917 -15.9093 -12.7254 -7.0558
-0.6554 6.9739 14.5343 19.1563 19.4929 15.3580
7.5540 -1.8824 -11.6126 -19.8303 -24.1074 -23.9122
-20.7125 -16.2206 -11.8450 -8.0168 -5.3879 -5.6240
-8.3422 -11.9193 -13.7943 -14.3149 -14.8001 -15.0808
-14.2953 -10.2506 -3.7973 4.3693 11.3655 17.3513
24.3159 30.5573 35.8690 37.6725 37.0329 34.8614
31.3028 27.3613 22.2792 17.9063 12.8911 8.2887
5.3056 2.5000 -1.0548 -7.2348 -12.7808 -16.1952
-16.6535 -12.9425 -8.4553 -5.1515 -3.7227 -3.3490
-4.2367 -7.4401 -11.5601 -14.0180 -12.4432 -7.1854
0.0944 7.8993 16.2054 24.2297 29.7404 32.2383
31.2101 28.0839 25.3323 22.5397 19.8867 16.9714
12.6887 9.3189 8.7361 10.5832 14.2700 17.3033
16.0447 10.4754 1.8719 -9.4637 -21.8813 -33.6185
-42.5464 -46.5577 -45.3901 -39.6432 -29.9809 -19.4290
-9.6839 -1.5629 3.3808 6.7060 8.5838 9.8351
10.3482 8.1869 5.2884 2.6567 1.7912 3.2963
4.5745 4.7678 3.4125 2.1213 1.3479 -0.1116
-2.1196 -1.9234 3.3066 10.9405 19.6937 27.7952
34.1527 37.8219 36.3689 30.0895 19.7049 9.5926
4.8823 6.2963 10.9945 17.4841 24.9163 29.9176
29.5113 23.0125 12.6530 2.6132 -3.7815 -6.2598
-5.3414 -2.2783 1.0999 3.5968 3.1646 -0.1690
-4.5837 -7.7425 -8.5429 -8.4378 -9.0234 -11.1718
-12.3068 -11.8336 -11.0379 -11.3353 -14.2998 -18.0322
-22.8578 -27.6712 -30.3671 -30.6441 -27.9789 -24.7913
-21.0171 -14.6818 -6.7402 1.4757 8.3603 12.5621
15.6438 18.6492 20.2835 20.2863 19.3093 18.9384
19.5333 20.9249 21.9791 19.6867 16.2918 14.3824
12.9657 10.9550 7.1538 2.1628 -3.2354 -7.3480
-8.1484 -5.5715 -1.4264 1.2667 3.1826 6.8360
11.9981 16.4723 18.4365 18.4840 17.5888 16.1702
14.7451 12.2742 7.7731 1.9064 -3.1451 -7.5449
-13.7602 -19.3258 -22.5394 -22.9577 -20.1150 -16.5490
-10.1338 -0.9948 6.8529 13.2588 17.7404 19.9827
20.0673 19.1739 18.8634 19.1414 19.0921 17.2106
13.3890 7.3103 -0.6805 -10.5855 -21.8597 -31.5108
-37.3320 -38.6186 -37.4166 -36.4665 -34.3405 -28.7211
-20.8287 -12.4808 -6.4561 -4.0233 -4.0632 -8.0122
-14.4265 -18.6831 -19.1498 -15.2826 -8.7391 -3.4087
-1.3506 -1.5848 -4.5317 -12.1433 -23.0847 -34.5988
-42.7430 -46.7180 -45.5709 -36.9748 -24.1835 -9.7699
3.2325 10.8432 14.1786 14.6285 11.5562 7.2670
4.1556 1.8967 0.8407 0.3471 -1.6070 -6.2503
-11.6439 -13.1378 -10.4726 -5.2408 1.4440 8.1391
16.3419 25.5859 31.5382 30.5798 23.3679 11.8371
-1.3493 -13.0382 -22.4542 -27.0445 -25.6427 -20.4267
-15.7396 -15.3975 -20.1273 -29.5851 -39.7903 -48.1827
-52.3399 -48.4495 -38.9276 -27.4191 -17.5829 -12.1094
-10.8042 -13.4601 -18.1285 -22.8695 -25.5663 -25.2512
-22.8565 -18.4901 -12.6977 -7.1842 -3.4091 -0.4809
0.9963 0.1662 -0.9856 -3.5560 -7.5588 -10.4806
-12.7190 -12.9803 -10.8375 -8.4122 -7.8386 -12.0962
-20.9042 -31.6429 -42.1865 -53.5695 -64.1707 -70.0774
-71.2534 -63.4577 -46.0731 -24.2627 -1.7998 19.1545
36.7631 47.5483 50.0880 43.3279 31.4922 18.1580
5.5433 0.5531 1.0942 5.2514 12.7068 18.9277
23.9811 25.5447 21.7937 13.3018 1.5516 -8.9241
-16.4306 -20.0793 -19.7391 -15.7780 -8.8999 -1.8702
3.5745 5.7507 5.2097 2.0416 -3.5593 -8.8282
-14.9757 -20.0848 -21.3686 -20.2800 -18.7025 -16.6490
-12.4973 -8.7027 -6.9262 -6.1816 -6.9913 -9.1647
-10.7803 -11.3957 -10.6167 -6.0951 2.0399 13.6432
25.1917 30.4765 31.7994 31.4434 29.4958 28.6936
29.6613 29.3230 29.5451 29.8975 28.6286 29.1213
31.3319 38.8180 45.7770 50.9531 57.5338 59.7676
60.2538 59.4757 57.1173 53.3115 48.9545 44.7796
37.8299 24.8508 10.3081 -2.3931 -19.9580 -36.1545
-50.5857 -66.1454 -74.2209 -76.3822 -74.4598 -70.0729
-64.0277 -53.9368 -40.4631 -27.3446 -16.4208 -4.0877
6.8073 16.8749 27.5384 36.2247 45.8321 55.7194
64.6353 73.2267 81.9975 84.4759 78.4883 72.3073
64.4299 57.8111 52.5328 47.2796 47.3363 47.7221
47.8049 44.9436 38.6204 27.8426 11.4862 0.5866
-6.2246 -6.0424 0.5699 2.0638 2.8521 -0.0892
-13.5183 -34.4316 -58.0770 -78.7867 -93.7143 -100.2624
-101.8409 -100.2122 -93.9002 -86.0999 -75.8807 -60.9215
-47.3902 -37.6888 -27.6128 -20.4400 -12.4268 -3.7024
2.8346 10.8859 18.1154 29.9456 43.9696 54.8218
62.4688 62.2717 52.0433 32.9947 15.5405 0.2169
-14.6001 -27.8348 -36.6763 -40.4031 -45.5438 -42.9985
-39.8239 -38.8608 -32.3359 -26.6802 -24.3274 -28.1071
-36.8110 -49.7855 -54.0923 -47.6604 -35.8916 -10.7950
15.6411 39.8629 57.6983 60.9398 56.4368 39.1555
16.2481 -4.8381 -24.7939 -36.6965 -48.2915 -57.1906
-57.6043 -55.9365 -52.7638 -44.6493 -32.7522 -19.9422
-0.8026 16.8581 25.2747 25.2757 21.3444 23.0112
31.2270 44.4358 57.2160 67.2557 74.7158 80.5156
81.3607 77.0761 72.4718 65.8000 57.5944 49.0383
39.6317 27.1183 13.8407 0.6097 -13.1512 -26.5692
-39.6524 -51.6573 -63.2049 -69.8785 -70.6417 -67.7171
-58.5317 -45.8472 -30.6017 -13.1000 0.4350 13.7200
28.0815 41.2298 53.7879 64.2720 72.0314 72.4200
66.8210 58.7223 48.6751 37.0987 23.1779 12.0041
6.2833 2.4273 1.9448 5.0804 10.7975 21.3141
34.9245 51.9902 65.7799 78.0433 89.2534 89.0043
86.6654 82.2386 73.3432 64.7258 53.0435 41.8278
30.1101 16.1075 6.9407 1.8084 -2.2354 -4.2527
-6.3508 -6.4818 -4.0862 -3.7060 -1.4917 1.6234
1.0155 0.0636 -1.9239 -4.2014 -2.8916 1.6941
6.5365 16.1393 27.8988 36.6640 44.3063 43.0997
35.1683 22.9366 8.9052 -0.2505 -7.0171 -9.9686
-13.9268 -21.8805 -29.9160 -40.4996 -48.9924 -54.5589
-56.5966 -53.1291 -48.7312 -33.5953 -10.1395 12.2165
35.8006 55.1206 62.4031 60.2186 55.7834 46.7310
35.6966 24.9280 16.6796 14.2422 13.9048 15.9694
14.5109 9.0867 1.4667 -10.9147 -25.5011 -41.7515
-56.5174 -67.5722 -70.8509 -64.3139 -52.3034 -34.8259
-16.4095 -2.2711 6.9710 8.8144 4.6479 -3.0706
-10.8495 -18.7595 -24.6402 -23.0487 -22.2120 -15.0764
0.7074 11.1004 24.1177 37.7494 43.2731 46.6811
46.6764 42.1353 38.7553 37.7904 34.4326 28.8885
28.1755 26.8833 21.0333 13.2897 2.3297 -9.5042
-21.7954 -31.4428 -38.7988 -46.5879 -53.3210 -56.8052
-56.2391 -53.6203 -47.5742 -42.2782 -38.1694 -32.2329
-27.8591 -26.0817 -27.0308 -28.9672 -31.1313 -29.8521
-24.2308 -17.2485 -5.8795 7.0346 20.3438 33.6102
41.5751 46.0716 44.1166 33.7292 19.8326 5.9294
-4.4143 -12.7008 -15.8410 -19.3289 -19.5436 -10.8555
-10.6324 -12.0742 -11.9515 -14.9123 -16.4396 -19.0453
-23.4330 -24.1534 -19.3027 -17.0029 -12.1225 -6.7679
-6.7633 -6.4630 -8.1577 -10.6276 -14.0207 -17.2687
-15.3137 -12.5983 -3.6109 7.1316 13.1768 23.6470
28.6408 32.3165 38.3775 40.4859 47.1261 54.5592
57.9290 59.1282 59.6265 53.6231 41.4936 31.4902
21.2943 9.9299 0.0073 -6.8151 -14.5754 -26.5980
-38.4737 -47.8831 -53.6560 -49.0061 -36.6544 -23.3155
-8.9754 5.0096 19.3924 29.8282 37.0447 41.9883
40.5623 37.0345 33.9622 30.7030 27.4103 23.2160
13.5890 1.6631 -15.5959 -34.5645 -53.9282 -67.1444
-68.6475 -80.3838 -58.7547 -40.4545 -64.0134 -60.7654
-56.1768 -54.1707 -46.3797 -46.9561 -44.2490 -42.5869
-38.0830 -31.7189 -21.8325 -9.0281 2.1392 10.4220
13.1922 10.5698 4.5469 -3.2850 -12.1199 -21.6493
-30.6163 -35.7923 -39.4633 -43.8473 -48.5725 -51.5342
-55.8048 -63.1459 -67.6145 -69.8604 -68.6705 -65.1501
-60.4760 -51.3956 -37.4478 -21.7979 -10.9001 -6.1880
-6.0876 -6.5152 -4.5026 0.8687 8.8345 18.2244
28.4343 37.7229 45.5270 51.0637 53.2501 50.8852
47.1417 40.7916 31.6378 27.2194 21.9169 12.6209
6.6519 3.2337 2.5049 3.0200 4.3930 6.8825
4.7091 0.8363 -5.3492 -11.7774 -18.0086 -21.0372
-16.8196 -10.6684 8.9342 24.4502 29.4906 39.5043
43.2106 39.4216 30.1144 20.9215 15.1292 11.7956
8.0149 4.5875 3.7276 -1.0729 -6.8680 -13.4097
-21.8672 -27.5090 -27.7265 -23.9616 -16.9802 -6.0890
3.0602 9.4159 14.4479 13.5201 6.3083 0.4509
-5.3043 -17.0536 -26.5783 -32.4776 -41.5059 -49.0840
-60.4140 -69.2369 -74.5793 -79.8809 -77.6219 -80.4498
-69.7705 -75.6242 -62.4842 -19.0828 -40.9499 -49.3637
-36.0760 -36.7862 -27.5645 -25.7434 -18.7741 -15.0529
-10.3909 -2.0170 9.0155 19.4578 24.5539 30.6865
31.4376 32.6034 30.9245 27.4441 23.3427 13.3755
3.8359 -4.3586 -8.5223 -10.5683 -10.5451 -8.9638
-6.0365 -1.6488 -0.1762 0.8482 2.9965 3.4213
10.9632 21.1396 28.7401 38.7519 34.6022 31.8766
19.6049 24.5327 39.4297 7.3853 -6.4789 -11.6140
-24.1729 -31.7315 -45.5297 -54.3479 -67.1532 -72.6853
-74.8150 -72.4519 -63.5779 -52.7731 -38.3019 -26.2198
-12.0666 1.6209 14.4597 25.0674 30.3578 34.0372
32.1845 28.3062 25.1716 18.4375 12.8218 6.1909
-3.3068 -12.6605 -24.0082 -33.9019 -40.7020 -45.2487
-46.0853 -43.4917 -40.0150 -36.3932 -31.4663 -27.2822
-24.2191 -20.3789 -12.3499 -1.8026 8.7828 17.7321
22.3207 23.1964 20.1045 15.5913 8.2233 -0.6842
-11.8646 -24.0098 -30.4204 -33.3393 -30.2121 -23.0133
-14.9052 -8.9390 -4.6740 -1.5022 -4.8348 -6.5694
-3.6337 -0.3671 6.2275 16.4049 22.5217 25.4732
26.6742 23.4067 18.6313 14.6136 12.0590 6.6450
-0.2369 -3.2004 -6.0004 -7.4385 -2.9931 -1.4843
-1.7437 -0.5482 -1.8190 -0.7852 -1.5884 -5.7289
-6.5711 -5.4351 -4.1820 1.0629 8.3008 14.5347
20.6971 22.7747 21.6964 19.8372 18.2076 17.8246
15.4188 11.7776 7.3331 2.6684 -0.6624 -2.4797
-0.5415 3.8007 10.3609 19.2526 28.5691 36.0273
41.1969 42.7019 38.4731 32.5404 26.3613 21.7951
16.6312 9.6740 3.0171 -6.0865 -15.0683 -23.2665
-30.2106 -34.6950 -35.3848 -31.6961 -24.3550 -12.9088
-2.5455 6.2234 12.5029 13.8834 15.1439 14.1865
12.5374 13.4623 13.0003 14.3259 14.8633 13.7273
11.4321 6.5647 1.8033 -4.4195 -7.2845 -6.7416
-3.4982 1.3776 6.1065 11.1756 13.5759 19.0364
23.1424 26.6220 33.1180 36.1244 39.4886 40.2584
36.8058 30.7067 23.1908 14.6152 4.0298 -4.4649
-12.1360 -17.7220 -20.1770 -20.9551 -19.9771 -17.0368
-13.0423 -7.2871 -2.2282 0.3468 2.6077 1.2709
0.8507 2.5919 4.1239 7.5160 11.6295 16.5192
20.1717 22.3999 21.4629 15.7440 8.3267 -1.8478
-11.7407 -18.4059 -24.0867 -24.6826 -20.9344 -15.5139
-6.0663 2.8616 9.5473 14.2893 14.9642 12.9005
9.0686 5.5826 3.1322 2.6813 4.4299 5.6273
8.2701 10.6490 10.1944 8.1121 3.2540 -0.9152
-3.6204 -6.5449 -7.5331 -7.2012 -7.4289 -8.9460
-12.0742 -15.6950 -17.8191 -19.0350 -19.0806 -19.1038
-20.2927 -22.7813 -25.4697 -25.5757 -25.8629 -28.1832
-31.2304 -34.8977 -39.4583 -40.6854 -38.5064 -35.4815
-30.5685 -26.9737 -23.9264 -19.4476 -14.9836 -10.6721
-5.1856 1.9213 12.1255 24.7654 35.5711 43.1874
46.9021 47.0164 41.7837 34.0187 25.4171 15.7399
10.2432 6.5452 5.5896 7.2471 7.7389 9.3108
10.1809 10.8419 13.2236 15.8478 18.7491 21.2358
23.1769 23.6482 23.8341 24.0656 24.0256 26.1154
26.9530 28.4701 31.6828 34.2439 36.5828 38.2115
38.4597 36.5754 36.3244 34.7617 31.8223 29.2204
25.0288 23.9728 25.4945 28.0789 30.9393 33.6890
36.6703 37.8797 38.4524 37.4726 34.9980 31.8931
28.6209 24.5427 20.9015 19.3016 15.3090 12.7888
9.2443 3.7698 0.7375 -2.8471 -3.1390 -2.3023
0.5990 5.4051 9.4135 17.4258 24.2900 27.7147
29.7868 27.4116 21.1545 13.3616 5.4814 -0.9627
-5.8589 -7.6651 -7.3518 -6.1294 -3.2374 -0.1241
4.4988 6.8349 4.3659 1.6766 -2.0976 -5.9750
-9.8775 -15.1465 -19.1224 -21.6128 -21.9167 -18.8676
-15.3519 -12.4980 -8.8241 -6.3161 -3.2995 1.6618
6.5265 11.2507 14.5164 16.1869 17.5832 18.4859
18.9302 21.0516 24.4140 29.2684 36.1224 42.5999
46.6622 47.0666 44.0426 37.3857 30.2445 22.4098
15.9165 13.6056 11.2843 12.7968 17.0107 19.2520
21.2330 19.2957 13.7692 6.9599 -1.4865 -5.9746
-6.1076 -3.2611 3.2043 9.4132 13.6159 14.2638
10.8039 4.3552 -4.2724 -10.3818 -13.7516 -14.4758
-8.8730 -2.7571 3.9992 11.0466 13.4068 15.3246
15.9726 14.8664 13.3139 11.1600 8.7542 7.3561
6.1188 4.6668 5.2682 2.6812 1.1687 0.8777
-1.1070 0.5319 0.8601 1.8659 1.4290 -2.0672
-4.4684 -9.2326 -12.0446 -12.4192 -13.2317 -14.7107
-16.1023 -18.1790 -23.0455 -25.9942 -27.6387 -26.5241
-21.5916 -15.1745 -6.5868 1.4134 11.4085 19.1651
23.7537 27.6004 26.1939 24.2613 18.9569 10.8889
4.9924 -2.6675 -9.0446 -13.2287 -17.4091 -21.4139
-25.1723 -29.0506 -33.7432 -36.3117 -37.0572 -35.8627
-31.1412 -24.6256 -16.8123 -12.1977 -9.7296 -6.9212
-5.5101 -2.1282 3.3277 9.1442 14.2031 18.3194
19.2890 17.4354 15.3466 11.8420 7.4487 3.9869
2.1639 0.2145 0.1299 -0.4669 -2.7974 -4.8350
-8.5191 -11.5477 -13.2414 -12.6781 -10.1226 -5.6679
-0.8925 2.6641 4.6609 2.3434 -0.5253 -3.8830
-7.5429 -11.8098 -17.4524 -20.9059 -24.5081 -26.5096
-27.6362 -28.9628 -29.4406 -29.7157 -25.9731 -22.0335
-17.8019 -10.7183 -5.0747 0.6917 6.4460 8.5311
7.4908 2.2832 -5.4753 -12.8136 -21.0731 -27.5961
-30.7893 -29.3661 -24.5805 -18.8959 -12.9418 -11.2722
-11.8690 -12.3477 -16.0764 -20.4901 -20.3665 -18.4673
-16.5281 -12.2501 -7.9032 -4.8355 -1.4192 0.8360
-1.4332 -5.9129 -10.9923 -17.4419 -19.9313 -19.9778
-20.3087 -18.4291 -17.8183 -18.2506 -20.3078 -23.6776
-28.7839 -36.4606 -41.1839 -45.7426 -47.7348 -44.2571
-38.6386 -30.4850 -22.4941 -15.1679 -8.6969 -3.9122
1.2257 5.2370 6.2149 8.1634 9.4992 9.3895
12.6432 14.4150 13.8824 12.8486 9.8572 6.0802
2.8712 1.5456 -0.9197 -1.8670 -0.2801 1.5215
3.5722 3.3937 2.9131 1.3718 -1.3017 -5.2051
-11.1295 -17.0241 -22.9206 -26.2978 -28.0427 -28.9481
-29.9167 -31.0592 -28.9332 -27.1548 -24.0890 -19.0161
-15.4827 -11.5356 -6.8383 -1.0589 3.8271 7.6124
10.1242 11.0901 12.5608 11.5419 10.3437 9.5758
7.9221 8.7457 8.3590 6.5165 3.6013 -0.6712
-6.5611 -14.5092 -22.7139 -32.2368 -38.6836 -41.7810
-40.9490 -35.8696 -30.4658 -24.4522 -16.8843 -10.0201
-3.9749 3.7948 7.9213 13.4711 19.8463 23.1055
29.8544 34.8037 38.3985 39.8310 37.0310 32.4862
24.4730 15.5916 6.4340 -1.7158 -7.2618 -9.6565
-9.9316 -8.9397 -5.5569 -2.6556 1.0378 6.5689
12.6114 19.5239 27.9526 36.4966 43.9381 50.9771
54.8117 57.3644 58.2206 57.7967 58.8630 58.8723
60.0780 60.8942 61.0662 61.6202 57.8145 52.5594
45.2406 36.4410 31.8887 27.6823 26.4217 26.2265
25.3695 25.8687 22.1093 18.7330 13.7792 7.2329
2.8898 -0.8630 -0.5990 0.9730 3.8799 7.4347
9.6286 11.8289 12.6591 14.9152 17.2151 18.5333
21.3109 23.9715 27.8238 32.6875 36.6801 39.8752
41.4509 41.0168 39.2264 36.9349 34.6276 31.8537
29.3791 28.8529 28.8418 29.1848 30.6304 31.6418
34.0327 36.8095 38.5999 40.7687 42.6577 46.0767
48.1628 48.5086 47.9239 44.4360 40.9779 36.2964
30.2772 24.1056 17.9637 12.9522 9.1260 8.0885
8.1722 5.9468 2.4580 -1.6881 -7.1569 -11.5437
-14.5928 -16.4474 -15.2947 -11.8105 -7.7872 -4.1106
-1.4891 -1.1516 -1.6657 -1.5969 -0.9805 0.5115
3.0391 7.2679 11.6129 15.4019 18.3330 19.7813
18.4929 15.6855 11.7393 5.7350 1.9804 -3.5573
-9.7038 -12.3030 -14.8659 -16.5150 -17.2057 -17.8917
-20.7224 -23.6292 -24.9121 -27.6925 -28.9326 -28.0123
-27.5103 -26.0722 -24.3719 -22.3751 -19.5975 -15.7628
-10.3200 -4.8567 0.6484 5.8505 10.0003 13.8256
15.7620 15.0239 13.8080 10.8267 7.2031 3.7022
-0.6074 -3.1257 -5.7918 -8.0461 -8.6661 -9.4246
-9.2108 -8.5359 -8.3946 -7.4064 -5.0415 -1.3686
4.5920 10.2421 14.7833 17.8789 17.3174 15.4275
11.4879 5.9084 0.3354 -5.0953 -8.9151 -12.3816
-14.1859 -15.9345 -17.9099 -18.8618 -21.3234 -23.1770
-25.8970 -27.9078 -28.4683 -29.2873 -27.6251 -26.0448
-23.8165 -21.1002 -18.6786 -15.6090 -13.6503 -12.7904
-13.5248 -13.9078 -13.0014 -12.7839 -12.0709 -10.7239
-10.1828 -8.5449 -6.7972 -5.4297 -2.9496 -0.8905
1.9355 5.3091 8.2941 11.5040 14.0214 15.9215
16.9004 16.7498 16.4142 15.5748 14.5504 14.2529
13.7974 13.2173 12.5685 10.9789 8.7441 6.2695
4.5311 3.7838 3.3738 3.8526 4.5423 4.8947
4.6511 2.2472 -1.0222 -3.9217 -5.6693 -5.8348
-5.0855 -3.5284 -2.1768 -0.9664 -2.4352 -4.5175
-5.9807 -8.4729 -8.1476 -8.0713 -6.8870 -3.4400
-1.6877 1.1978 2.6071 2.2064 2.0196 0.6243
0.1743 -0.7060 -1.4562 -1.0434 -0.9458 -0.7245
-1.5249 -4.0358 -7.5794 -10.2427 -12.5844 -13.8617
-14.4315 -14.4910 -12.9571 -12.9813 -11.2931 -9.3335
-8.9570 -7.3711 -7.4957 -6.6190 -6.1152 -7.6881
-9.3111 -13.7314 -19.7385 -26.6947 -33.9865 -39.7194
-44.0346 -46.7351 -46.7537 -44.7420 -43.1468 -41.5191
-39.9564 -38.6931 -35.8401 -31.8818 -27.1613 -21.9211
-16.6837 -10.6914 -5.7738 -1.9717 0.9296 2.0842
3.2490 4.0633 4.3357 4.2455 3.2174 2.0136
1.0737 1.3879 2.3938 3.4870 5.0776 5.9059
6.6700 7.7920 9.3129 10.7649 12.1696 13.3242
12.6465 12.9495 12.8110 12.4782 13.3512 12.3007
12.1594 11.7960 10.6684 10.1152 7.8647 5.6634
2.9638 0.7030 0.6593 1.2171 3.5058 5.6281
5.9321 5.4143 4.0701 2.7687 1.5435 0.6148
-0.6922 -1.7780 -2.6462 -2.8544 -1.8142 -1.8886
-1.4740 -0.6764 0.3574 2.2194 4.6680 7.9848
10.6212 12.7351 13.2845 14.0561 14.8072 13.1972
11.9022 10.1574 6.5719 2.9725 -0.4280 -4.8725
-8.4784 -10.1145 -12.9758 -14.6890 -14.8545 -17.3059
-17.2984 -16.8141 -17.1311 -14.2967 -10.6294 -6.6051
-2.5139 1.5261 2.4743 1.3830 -0.4753 -5.3789
-8.4317 -9.6430 -10.3885 -8.9718 -6.6339 -4.7997
-4.2122 -5.1056 -8.0701 -11.3794 -14.6758 -18.2018
-20.0945 -21.1988 -21.4163 -20.5128 -19.7049 -18.4862
-17.7407 -17.2666 -16.8333 -17.6598 -17.5845 -17.3827
-16.5749 -13.6159 -10.9266 -7.7576 -4.4891 -2.0544
-0.2798 1.1249 2.8307 4.2688 5.6279 6.6709
7.1004 6.4134 5.3872 4.2289 2.7387 2.9953
3.5531 4.1155 5.5871 6.1467 6.3726 6.3577
5.4309 4.6705 4.2857 3.4444 1.9831 0.6165
-0.9415 -2.5999 -3.9822 -6.6288 -9.8749 -12.6321
-15.0082 -16.5346 -18.0452 -18.8474 -19.3336 -19.9044
-18.5964 -16.8627 -15.4701 -14.3342 -13.7308 -12.4777
-10.1016 -6.6454 -2.8684 0.9467 4.1325 6.8358
8.5519 8.6504 7.3908 4.6011 1.4544 -3.0133
-7.3657 -10.4585 -13.2092 -14.4084 -15.8734 -17.6527
-18.9671 -19.1809 -16.9647 -15.2710 -13.0148 -9.1765
-5.8847 -2.6302 0.1624 2.2688 3.7135 5.1646
7.0759 9.4352 11.0750 11.6756 11.3000 9.4046
7.4450 4.4591 1.3040 -0.1861 -1.1055 -0.9075
0.2322 0.7007 1.2343 2.4233 2.2169 0.7575
-0.6881 -2.9600 -3.9305 -3.8478 -3.9918 -1.9002
0.1328 0.8208 1.7792 1.4018 0.2035 -0.5178
-1.1844 -0.5373 0.7316 2.1464 4.4286 6.4682
8.3897 9.3723 8.2047 6.7527 4.6890 1.5878
0.1720 -0.6702 -1.1526 -0.3383 -0.0743 0.1433
1.4280 2.9023 3.8998 5.3314 6.0835 5.5796
5.5313 4.2466 2.8773 3.0093 2.9043 4.7245
5.9720 6.2546 7.8647 7.3134 5.1716 2.3652
-1.1376 -4.0286 -4.6487 -3.7665 -2.3944 -0.6867
0.4921 0.9002 -0.0675 -2.7996 -6.2977 -8.1625
-9.1627 -7.8762 -5.3197 -2.5848 1.4097 4.7200
7.7096 8.6736 8.7248 8.0239 6.1758 5.2862
3.9717 2.8730 2.2799 2.1934 2.9836 3.4298
4.2339 5.2119 6.5821 9.0066 10.8648 12.4842
13.3488 13.6174 14.3602 13.6714 12.6581 11.7796
10.1770 10.2709 10.2560 9.5737 8.3643 5.3998
3.0368 -0.7895 -3.7558 -5.4301 -7.5886 -7.2223
-6.4368 -4.7189 -2.7593 -1.9319 -1.8110 -2.0843
-2.1661 -2.9098 -3.8301 -4.3470 -4.1229 -3.4276
-1.1603 1.7206 4.7995 8.0373 10.5193 13.0600
14.0770 14.7519 14.9006 13.5201 12.1239 9.5619
7.1998 5.4242 3.3345 3.2062 3.0780 3.2062
5.1296 6.6653 9.4309 11.6796 13.3381 15.1294
15.9270 17.1866 16.8083 16.4346 15.8127 14.1961
14.4908 14.4713 14.4657 14.8934 13.9935 12.6986
10.8859 9.1289 7.1684 4.4289 2.1709 -0.1885
-2.2169 -3.5480 -3.8325 -2.7504 -1.0957 0.9820
3.0550 4.2309 4.6112 5.7313 6.1078 6.5661
7.9875 9.1086 11.1073 13.3142 15.6912 17.0410
17.2381 16.7919 15.6810 14.9931 13.5848 12.3977
11.0999 9.1078 7.9663 7.1250 7.0255 8.2842
9.5773 11.1409 12.9546 13.6332 13.5728 13.2688
13.4891 13.4705 12.7687 13.2465 13.4352 12.8803
13.0197 11.6393 9.3831 8.0055 5.7224 4.2880
3.5676 2.1341 2.3219 3.0107 3.4105 5.0531
6.7227 7.5426 7.9256 6.6790 3.6178 -0.0848
-3.9240 -7.2687 -9.4198 -10.4424 -10.2351 -9.5072
-9.3454 -9.4161 -10.4926 -12.9021 -15.3302 -17.8290
-20.5973 -22.4714 -24.3603 -26.7002 -28.8289 -31.7814
-34.7542 -36.9351 -39.3046 -40.5791 -41.0011 -41.3832
-40.1468 -38.4782 -35.2719 -31.5135 -29.1300 -26.6322
-24.6317 -23.1945 -21.8075 -20.2578 -19.3840 -17.6800
-16.0672 -15.6665 -15.0343 -15.6637 -16.7671 -17.2003
-16.9521 -15.9574 -14.2795 -12.5299 -10.5517 -8.3737
-6.5423 -5.3059 -4.9155 -5.2065 -7.1075 -8.5149
-9.7968 -11.0601 -11.5026 -11.7843 -10.4001 -8.2694
-4.8401 -1.8142 0.2662 2.0706 2.4806 2.6163
2.9035 3.1657 4.1511 6.6239 8.9442 11.9328
14.8332 16.5270 17.9939 18.0822 17.2846 16.0678
13.9855 12.1318 11.0507 10.3619 10.4056 10.7709
10.7170 9.1339 6.3377 2.5124 -1.6420 -4.8836
-7.3442 -7.4948 -5.8745 -2.8802 1.3030 5.8060
10.1482 14.1251 17.3787 18.7703 20.1424 20.8647
20.7950 20.7300 20.0476 19.1404 18.4999 18.0248
16.3850 15.2677 13.3973 10.8855 9.0496 6.4578
4.7780 3.9665 4.0372 4.6656 5.6231 6.5397
7.2917 8.3599 8.8516 10.1178 11.6433 13.2171
15.0661 16.5005 17.3752 16.6195 14.3540 10.9247
7.1729 2.8279 -0.4768 -2.9105 -6.7730 -8.5811
-10.7006 -13.2366 -13.1901 -13.9049 -12.8842 -11.3355
-10.5425 -8.3254 -7.3939 -6.5526 -5.7913 -5.6351
-4.8421 -4.4796 -4.3271 -4.3336 -4.3280 -4.4935
-4.6394 -4.9174 -5.9520 -6.6018 -7.5872 -7.6383
-7.9135 -8.3875 -7.0982 -7.4812 -7.5416 -7.3110
-7.5992 -7.6150 -7.3008 -6.6770 -7.0442 -4.4134
-3.5117 -1.7631 2.6386 3.1285 5.5753 6.5272
6.0968 6.3561 4.2562 2.0493 0.1148 -1.2266
-1.2777 0.6661 1.4154 3.3601 5.7120 6.2066
8.7397 9.3710 9.1311 10.0208 9.9353 10.6604
11.6206 12.5577 12.9509 13.4585 13.3079 10.1491
7.9069 3.8111 -0.0458 -0.6454 -2.3931 -1.8083
-0.6789 -0.3646 -0.4660 -1.8585 -3.9399 -6.1700
-8.2411 -10.8087 -11.1489 -12.3072 -14.0456 -14.9891
-16.9943 -18.5606 -20.5267 -21.0380 -20.9850 -20.2209
-18.7586 -19.3665 -20.1232 -21.6812 -22.7707 -23.4633
-24.0657 -23.4410 -23.0998 -21.4562 -20.4188 -19.9949
-19.1415 -20.1045 -21.1773 -21.8355 -22.6981 -23.7142
-24.7776 -26.2008 -28.0033 -30.5681 -33.5484 -35.5322
-37.1925 -36.8020 -35.2328 -32.7238 -28.7088 -25.7071
-22.1282 -19.7976 -18.6644 -17.0692 -17.0832 -17.3797
-18.0202 -18.9247 -19.7901 -20.8145 -21.8827 -22.8281
-23.3672 -24.1267 -23.6582 -23.0883 -22.9600 -22.3046
-21.1566 -19.4795 -17.9020 -15.7509 -14.5526 -13.2902
-11.8465 -11.2739 -10.4391 -10.7737 -11.5295 -12.6887
-13.8247 -14.6604 -15.3380 -14.7979 -13.5476 -12.2006
-10.7151 -8.8075 -7.9792 -6.6322 -5.1430 -4.2171
-1.9303 -0.5424 0.9050 2.9409 4.0155 5.2742
6.7198 7.8715 8.9592 10.3136 10.6818 10.1249
9.4779 7.6782 6.6808 6.0933 5.9074 7.2665
7.8326 8.9779 9.7123 9.2307 8.8980 7.6848
7.4943 9.2605 11.3159 14.7684 19.0075 22.4331
25.2656 25.5426 24.3546 22.2769 18.6450 15.0948
11.7362 8.8655 7.3828 6.9943 6.5192 6.4040
6.4588 5.7272 5.1611 5.2160 5.4726 5.7477
5.5432 4.8367 4.0549 3.8811 3.7575 4.1275
5.5479 5.4355 5.1873 4.5319 1.8435 -0.6748
-3.7193 -6.5982 -8.4342 -9.3712 -9.3424 -8.8516
-7.8095 -7.1606 -6.3081 -5.5868 -5.4083 -5.3069
-6.0478 -7.1512 -8.0474 -8.1998 -7.7006 -6.6529
-4.8105 -2.3098 1.2106 4.6585 7.3720 9.5036
10.5067 11.2430 12.0833 13.2044 14.7606 16.3967
18.6278 20.3392 20.9462 21.1275 20.4926 19.2878
18.5200 18.4624 18.6966 19.6513 20.6135 20.6674
20.6981 19.9554 18.6335 17.7978 16.8988 16.8347
17.8220 19.4646 21.9541 24.5105 26.7611 28.0988
28.6082 28.6240 28.2122 27.7084 26.7899 26.4441
26.3930 26.6868 27.6173 27.4695 26.5251 24.0886
20.9456 18.0015 14.6829 12.6414 11.1736 10.3444
10.5870 10.8157 11.1467 11.6747 12.0335 12.0596
11.9313 11.1133 10.6355 10.5611 10.2822 9.9448
9.1593 9.1175 8.5095 7.1123 5.9596 4.2705
3.2126 2.0981 1.0141 0.4183 -0.7326 -1.5357
-2.5351 -4.1284 -5.7050 -6.7824 -7.3281 -7.7575
-7.8654 -8.6434 -10.0044 -11.7780 -14.0723 -16.2318
-18.5046 -20.1026 -20.8082 -20.6027 -19.8172 -19.1088
-17.9719 -17.1836 -16.6928 -16.5738 -17.1278 -17.6019
-18.3883 -19.3021 -19.7762 -19.4518 -18.4013 -16.8070
-14.8363 -13.2039 -11.6728 -9.8954 -8.0594 -6.1853
-4.5195 -2.5459 0.1630 2.8235 5.8838 8.6884
10.6322 13.0604 14.6863 15.4653 16.5027 16.6375
16.5948 16.1346 14.4474 13.2278 12.7500 12.1829
12.0704 12.8160 13.1153 13.6805 14.2811 13.4072
12.7008 12.3893 12.3596 13.0903 14.1491 15.3028
16.5224 17.5654 17.8945 17.4502 16.4369 15.2415
14.1231 13.5096 13.1871 12.9584 12.8329 12.6024
12.3384 12.2528 12.3700 12.4072 13.1295 14.0684
15.2341 16.6639 17.3490 17.7896 17.4327 16.3069
14.5760 12.4119 10.4681 8.9789 8.3923 7.9721
7.8866 7.9173 7.7444 7.7649 7.1411 6.1316
5.0430 4.1562 4.0809 5.1230 7.3624 9.9895
12.7616 14.6152 15.1646 14.6822 12.5264 10.3577
8.1480 5.8937 5.1928 4.8712 5.3918 6.5501
7.3170 8.4056 8.7941 8.4270 7.5792 6.1197
5.1148 4.3321 3.4425 3.2510 3.3821 3.0939
2.6561 2.0946 0.8192 -0.4962 -2.0542 -4.6078
-6.5098 -8.4685 -9.9726 -9.9521 -10.1873 -10.0813
-9.5282 -9.3794 -9.2121 -9.3506 -10.6771 -12.2463
-14.0293 -15.3809 -15.4441 -14.7906 -12.6711 -10.6334
-8.4869 -6.0857 -5.2193 -5.5549 -7.2068 -9.5141
-11.5099 -12.7974 -13.5616 -13.7335 -13.7372 -13.7382
-13.1190 -13.3012 -13.8497 -14.1788 -15.0015 -15.3668
-14.0477 -11.7803 -9.6274 -6.6805 -4.0906 -1.7778
0.3334 0.9460 1.3541 0.7015 -0.1035 -0.5051
-0.9522 -0.1751 0.2628 1.0158 1.9203 2.1202
2.2048 1.3244 -0.0030 -1.5238 -3.4630 -5.3073
-5.8112 -6.0352 -5.8390 -4.5599 -3.7372 -2.0239
-0.1972 1.5542 3.2163 3.6969 4.5670 4.4648
3.7518 3.3391 1.7959 0.6813 -0.2167 -1.8546
-2.9060 -4.1033 -5.8658 -6.8456 -7.6916 -8.4445
-8.6425 -9.2421 -9.1306 -7.9425 -6.6689 -5.2160
-4.0614 -3.7955 -3.6458 -3.3948 -3.9703 -4.0046
-3.5566 -3.4831 -2.9030 -3.0741 -4.0362 -5.3330
-7.5603 -9.4846 -10.5927 -11.2824 -11.1142 -10.5982
-9.9837 -9.4148 -9.0950 -8.5233 -7.9070 -7.0731
-6.5925 -6.2708 -6.6520 -7.5416 -7.7703 -8.2481
-7.7368 -6.9392 -6.1722 -4.5008 -3.2161 -2.4138
-2.2009 -2.4900 -3.1333 -3.5628 -3.2634 -3.0041
-2.2213 -1.1170 -0.2738 0.5638 0.7627 0.8557
0.4318 -0.2477 -0.3639 -0.4931 -0.1111 0.8929
2.6229 4.7871 7.3769 9.8534 11.8419 13.3330
13.6769 13.3878 12.6850 12.2221 11.7238 11.4691
11.2758 10.4996 9.7317 8.5344 7.4914 6.6910
6.1268 5.6136 5.1730 4.7835 4.4637 4.3801
3.5825 2.6957 1.8265 1.0335 0.1681 -0.5347
-1.0776 -2.3576 -3.6470 -5.3556 -7.1627 -8.6120
-10.0185 -10.7054 -10.8077 -10.3791 -9.2348 -7.5605
-5.6325 -4.0271 -2.5695 -0.9585 0.6321 1.9401
2.9301 4.2613 5.8389 7.2881 8.8285 10.2489
11.3858 12.1453 12.0793 11.6675 10.6301 8.8667
7.1385 5.2301 3.9965 3.3476 2.9051 2.9851
2.8559 3.0242 3.5708 3.7604 4.1750 4.5311
4.6594 5.5156 6.5632 7.5942 9.3437 10.8980
12.1065 13.4117 13.9583 13.9592 13.4191 12.0247
10.1414 8.2431 6.2584 4.8900 4.7237 4.5842
5.6124 7.0347 8.2850 10.1795 11.0264 11.9374
12.5696 12.7248 13.7493 14.4976 15.7340 16.8021
17.0057 17.4491 16.8691 15.6234 14.3434 12.4990
10.9708 10.2671 9.7047 9.4286 8.9591 8.0509
7.5750 6.5626 5.7195 5.1283 4.4181 4.0249
3.0209 1.9955 0.7713 -0.6427 -1.7507 -2.8300
-3.1786 -2.6376 -1.7981 -0.7783 -0.0105 0.4609
0.9638 0.9452 0.9340 1.0363 0.8290 1.1516
2.0487 3.1912 4.2937 4.4369 3.5761 2.0998
0.4377 -0.9883 -2.0685 -2.6234 -2.9497 -2.9153
-2.8911 -2.7833 -2.4849 -2.5741 -2.4458 -2.6094
-2.9850 -3.4656 -4.7066 -5.9718 -7.1338 -7.8616
-8.0299 -8.0225 -7.3243 -6.2125 -5.3554 -4.6321
-4.4788 -4.8385 -4.6823 -4.3858 -3.7945 -2.8166
-2.0757 -0.9109 0.3292 1.4094 2.7193 3.4973
3.5076 3.1311 2.0147 0.1768 -2.2020 -4.8774
-7.0685 -9.2103 -10.7125 -11.2526 -11.5938 -11.0118
-10.0069 -8.8635 -7.4821 -6.3917 -5.7623 -5.5410
-5.1580 -4.9954 -4.3019 -3.1064 -1.9620 -0.6476
-0.6680 -1.4907 -3.1175 -5.2044 -6.6955 -7.9979
-8.3298 -7.9663 -6.9195 -5.4461 -4.3529 -3.8360
-4.1270 -4.8344 -5.7194 -6.5848 -7.4949 -7.8202
-7.3303 -6.5374 -5.3605 -4.4615 -4.0432 -3.8945
-3.7848 -3.7457 -4.0060 -4.1687 -4.3815 -4.2179
-3.7801 -3.5486 -3.3617 -3.5960 -4.0171 -4.5739
-4.6455 -4.6836 -4.9466 -4.3972 -4.1211 -3.1516
-1.6223 -0.5598 1.0763 2.4475 3.6169 4.7064
5.6054 6.4095 6.7795 7.1727 7.2889 7.2053
7.0668 7.0798 6.9822 6.4988 5.9968 4.5587
3.1430 1.9782 0.5884 -0.2659 -1.4074 -2.3110
-2.9087 -3.3428 -2.8195 -1.8145 -0.4806 0.6610
1.1137 1.1621 0.9548 0.2567 -0.2332 -0.5762
-1.0847 -0.8133 -0.5204 -0.3261 -0.1644 -0.4758
-1.0280 -1.8637 -2.6343 -3.2088 -3.5741 -3.5843
-3.3966 -3.3454 -3.4672 -3.9905 -4.8290 -5.6917
-6.2095 -6.3805 -6.6687 -6.5097 -6.6166 -7.1976
-8.0594 -9.6945 -11.1568 -12.6897 -14.3202 -15.3734
-15.9535 -15.7415 -14.6623 -12.9007 -10.8946 -9.3458
-8.2628 -7.9077 -7.9244 -7.6744 -7.6046 -6.9344
-5.9945 -5.3122 -4.2413 -3.6835 -3.3740 -2.9324
-2.9407 -3.0058 -2.6749 -1.6737 -0.0413 2.0067
3.6502 5.1590 6.0421 5.9482 6.0272 5.2464
5.2371 5.6071 5.6415 6.6724 7.4375 8.3922
9.0188 9.3349 9.4176 9.0411 9.0671 9.4046
10.1000 10.7024 10.9757 11.0538 10.8297 10.8091
10.8091 11.1057 11.4060 12.2398 12.8348 13.6993
14.8520 15.4135 16.0577 16.0484 15.6106 14.6819
13.7514 13.0635 11.8048 10.7990 9.5710 8.2705
7.5770 7.4543 7.6904 7.9312 8.5122 8.7762
8.7576 8.8208 8.1394 7.2340 6.0376 4.3522
3.4078 2.3675 0.6980 -0.0039 -0.7308 -2.0611
-2.6142 -3.6489 -4.7170 -5.1678 -6.0853 -6.2387
-6.1532 -6.3289 -6.2796 -6.5204 -6.8243 -7.2538
-7.4435 -7.8497 -8.6984 -9.4737 -10.3243 -11.1061
-11.8293 -12.2030 -12.6343 -12.8416 -12.5098 -12.4196
-12.4140 -12.9002 -13.4775 -13.7656 -14.0538 -13.7247
-12.8416 -11.3886 -10.0751 -8.7448 -7.5084 -6.9442
-6.4282 -6.7220 -7.1766 -7.9165 -8.8898 -9.4578
-10.5501 -11.2696 -11.8180 -12.0951 -12.1676 -12.7644
-13.1520 -13.9747 -14.7742 -15.2957 -15.9761 -16.2318
-16.4065 -16.7616 -17.2962 -18.1663 -19.4826 -20.4810
-21.0806 -21.5082 -21.4357 -21.2116 -20.7329 -20.0691
-19.2641 -18.4321 -17.4318 -15.9919 -14.5361 -12.9251
-11.7817 -11.3225 -10.9348 -11.1096 -11.3113 -11.2750
-11.0017 -10.2088 -9.7384 -9.4316 -9.4790 -9.8118
-9.9680 -10.1483 -9.8155 -8.8394 -7.3483 -5.5802
-3.9701 -2.8528 -1.8925 -1.0409 -0.6403 -0.3084
-0.4255 -0.7825 -0.6087 -0.3512 -0.1652 0.1053
0.1397 0.0811 0.2615 0.3331 0.1964 0.1351
0.0189 0.0793 0.4335 0.6101 0.9066 1.2683
1.5323 1.9255 2.0733 2.1579 2.2462 1.8539
1.4208 1.3919 1.1753 1.2981 1.8289 2.1059
3.0569 3.9921 4.8092 5.8429 6.4295 6.7028
6.5494 6.0921 4.9245 3.8136 2.8413 2.2407
2.8022 3.5561 5.0853 6.8023 8.6355 10.4594
11.2003 11.4234 10.8526 10.3302 9.8738 9.3327
9.3876 9.0436 8.9823 9.1803 8.7415 8.4757
8.0917 7.4726 6.8712 6.3878 6.1768 5.9592
6.0308 5.8003 5.3215 4.7573 3.6315 2.7744
1.9053 1.3429 1.6599 2.3227 3.6158 5.1078
6.2949 7.0107 6.8954 6.3544 5.5837 4.7248
4.0573 3.1147 1.9546 0.8261 -0.2737 -1.1438
-1.9098 -2.1738 -1.9869 -1.5044 -0.5479 -0.1556
-0.2829 -0.7329 -1.8865 -2.8960 -3.6211 -4.0701
-4.0190 -3.7429 -3.3106 -2.9239 -2.7064 -2.7798
-3.0903 -3.5105 -4.0106 -4.4187 -4.7970 -5.2200
-5.6086 -5.8103 -5.9144 -6.0241 -6.2388 -6.3885
-6.3513 -6.1356 -5.7545 -5.9330 -6.3745 -7.0215
-7.9316 -8.2514 -8.4048 -8.2374 -7.5821 -6.8235
-5.6624 -4.5013 -3.5039 -2.4915 -1.8929 -1.6939
-1.4457 -1.3509 -1.2096 -0.9344 -0.9558 -0.7754
-0.4120 0.3754 1.8423 3.5352 5.1397 6.2161
7.0184 7.3112 7.2852 7.0807 6.6354 6.5657
6.2552 6.2385 6.7303 7.2490 8.1349 8.5216
8.3692 7.9322 7.2787 6.7851 6.1502 5.5990
4.9120 4.2957 4.1925 4.1060 4.4128 4.9603
5.6352 6.3250 6.7889 7.4173 7.9695 8.3990
8.4975 8.2400 7.8189 7.1143 6.3548 5.4233
4.5625 3.8458 3.0677 2.7786 2.2116 1.5701
1.5925 1.2253 0.8311 0.5429 -0.0539 -0.4220
-0.7566 -1.1303 -0.8524 -0.2184 0.3701 1.2746
1.8956 2.3250 2.9628 3.2770 3.5112 3.2705
2.5063 1.9365 1.2411 0.7894 0.3915 0.0401
0.1591 0.0550 0.3469 0.4529 0.0280 -0.3336
-1.2678 -1.9892 -2.5720 -3.1419 -3.0536 -2.5311
-1.6415 -0.8448 -0.4088 -0.0491 0.0132 0.1090
0.4381 0.5282 0.9586 1.2171 1.3323 1.9217
2.1653 2.6924 3.3264 3.4640 3.8423 4.1844
4.3080 4.3071 4.2030 4.1175 4.2448 4.6539
5.2312 5.9925 6.5336 7.1034 7.4474 7.4139
7.4548 7.3275 6.8338 6.0279 5.7016 5.4292
5.3037 5.5445 5.2768 5.3790 5.3539 4.7413
4.2003 3.6193 3.0039 2.7594 3.1015 3.2624
3.5552 3.4408 2.8524 2.4899 1.6978 0.9811
0.3285 -0.3631 -1.0184 -1.6859 -2.2715 -2.6025
-2.2074 -1.6478 -1.2871 -1.1802 -1.4228 -1.5529
-1.5269 -1.4060 -1.2443 -1.0556 -0.4365 0.1046
0.8176 1.4516 1.5604 1.9080 1.5855 1.0714
0.6177 -0.7237 -1.9173 -2.6479 -3.0551 -2.9854
-2.8580 -2.3272 -1.4571 -0.9458 -0.4187 0.1000
0.3426 0.8456 1.2499 1.6171 2.2437 2.5542
3.1082 3.8575 4.4775 5.0697 5.6479 6.0756
6.0254 5.8274 5.0790 4.1727 3.5080 3.0804
3.2152 3.4141 4.0974 4.9666 5.7949 6.5794
7.0108 7.7099 8.0863 8.2435 8.4749 8.1644
7.6225 7.1586 6.6548 6.2523 6.3025 6.6343
7.1122 7.6337 7.7406 7.5593 7.1047 6.0403
4.9750 4.1086 3.4988 3.5248 3.7889 4.3578
5.2437 6.0348 6.5768 6.7320 6.6130 6.2765
5.6091 5.1861 5.0773 5.2112 6.0069 6.7265
7.3223 7.7342 7.5073 6.8789 6.1111 5.4566
4.7371 4.4834 4.3058 4.1506 4.4453 4.3477
4.5745 4.9166 4.9333 5.6937 6.6791 7.4832
8.1544 8.2167 8.2130 8.1739 8.0717 8.7261
9.7236 10.9507 12.5310 13.8250 14.8690 15.6006
15.8358 16.1119 16.4698 16.5600 17.1038 18.1403
18.8905 19.8647 20.4169 19.9707 19.3497 18.0669
16.5024 14.9332 13.1446 11.6656 10.4367 9.5406
8.6072 7.8989 7.2035 6.1968 5.7022 5.4104
5.3053 5.8705 6.5101 6.8624 7.5819 8.0653
8.2643 8.2698 7.4499 6.4664 5.3769 4.5087
3.9621 3.4731 3.1626 2.7118 2.0843 1.4531
0.8145 0.1340 -0.4238 -1.0020 -1.5746 -2.2421
-3.0675 -3.8716 -4.8040 -5.6472 -6.2775 -6.7757
-7.4311 -8.3718 -9.3377 -10.4077 -11.3494 -12.2790
-13.1017 -13.6613 -14.2237 -14.3157 -14.1958 -13.9355
-13.6241 -13.5181 -13.7077 -14.3464 -14.8697 -15.4786
-16.0308 -16.5960 -17.5340 -18.3334 -19.0148 -19.4210
-19.4982 -19.6497 -19.7566 -20.1489 -20.8461 -21.1715
-21.5470 -21.7673 -21.6046 -21.4596 -21.0004 -20.6481
-20.6546 -20.7336 -20.6667 -20.2251 -19.6041 -18.8762
-18.2776 -17.8955 -17.7542 -18.0730 -18.2022 -18.0405
-17.3572 -15.7797 -14.0264 -12.4303 -11.2674 -10.4447
-10.3257 -10.4670 -10.2067 -10.4493 -10.3126 -9.9845
-9.9519 -9.4183 -9.0437 -8.6263 -7.9263 -7.4401
-7.1519 -7.0311 -7.1157 -7.0292 -6.8089 -6.5012
-5.8616 -5.2248 -4.4877 -3.7496 -2.9994 -2.2027
-1.3930 -0.4346 0.2004 0.8511 1.3484 1.3150
1.3735 1.0138 0.5285 0.1520 -0.4875 -1.0899
-1.9953 -2.9491 -4.1734 -5.5092 -6.6322 -7.4140
-7.2522 -6.5625 -5.4293 -4.4039 -3.7708 -3.4139
-3.5635 -3.7876 -4.0488 -4.1045 -3.6713 -2.8561
-1.5667 -0.2225 0.9451 1.9165 2.2912 2.0913
1.6023 1.0678 0.7443 0.7387 0.9609 1.4666
2.2085 2.8146 3.4811 4.0091 4.2090 4.7073
5.2083 5.7354 6.5618 7.2999 7.9600 8.3634
8.4713 8.6460 8.4471 7.9702 7.4329 6.5079
5.4993 4.1672 3.0666 2.3034 1.7391 1.8311
2.0022 2.5386 3.1372 3.5537 4.0576 4.3383
4.7194 5.1043 5.1285 5.0346 4.9184 4.7529
4.7399 4.7474 4.6944 4.7074 4.7641 4.6786
4.4796 4.4229 4.1627 3.7592 3.3223 2.7757
2.5693 2.4550 2.6688 3.2545 3.7211 4.2752
4.6117 4.8357 4.9975 4.8144 4.4314 4.1553
4.1097 4.2352 4.6712 5.2392 5.9355 6.3204
6.5193 6.5723 6.2181 6.0275 5.4912 5.0152
4.6713 4.0140 3.6924 3.1235 2.2999 1.4632
0.1850 -1.2577 -2.7042 -3.8216 -4.3012 -4.3170
-3.9945 -3.5799 -3.4553 -3.5166 -3.5947 -3.6421
-3.7704 -3.8634 -3.8764 -4.2631 -4.4574 -4.7781
-4.9770 -4.6879 -4.6303 -4.0372 -3.3725 -2.9319
-2.4605 -2.5442 -2.9291 -3.4487 -3.9098 -4.0278
-3.9451 -3.4831 -2.6855 -1.6694 -0.5985 0.0996
0.5468 0.5905 0.2168 -0.3949 -0.9146 -1.3366
-1.6610 -1.3496 -0.6626 0.4139 1.7655 3.1190
4.1007 4.6445 4.6798 4.2513 4.4224 4.7208
5.4124 6.8022 8.2217 9.5873 10.6433 11.3377
11.3851 11.3024 10.8627 10.2826 10.0279 9.5650
9.3261 8.8631 8.3621 7.9252 7.4594 7.2633
6.7353 6.2473 5.6430 4.8798 4.2765 3.7717
3.2186 2.1245 1.0712 -0.2237 -1.5196 -2.0578
-2.3199 -2.0940 -1.5902 -1.0027 -0.5537 -0.4737
-0.5565 -0.8298 -1.3624 -2.0503 -2.5328 -3.1565
-3.6511 -3.7673 -4.3678 -4.9702 -5.3048 -5.6748
-5.8728 -6.0885 -6.1852 -6.0615 -5.8561 -5.5456
-5.0092 -4.6569 -4.3259 -3.8555 -3.7867 -3.6640
-3.5822 -3.7021 -4.1140 -4.5016 -4.7814 -5.4117
-5.5827 -5.5418 -5.1941 -4.3621 -3.5803 -2.5977
-2.0056 -1.5649 -0.9430 -0.3537 0.4291 1.3001
2.2511 3.1891 4.2749 5.2119 6.0913 6.7495
6.9168 6.8369 6.1648 5.4825 4.8457 4.5250
4.8736 5.4425 6.1564 6.7216 6.9531 7.2181
7.5118 7.4560 7.8037 8.1375 8.3243 8.9555
9.4138 9.9669 10.3871 10.7404 11.3325 11.9089
12.6740 13.1750 13.4734 13.6454 13.4325 13.3814
13.1276 12.5253 12.0707 11.4423 10.8055 10.2087
9.3674 8.7873 8.6107 8.1785 7.7564 7.2758
6.1789 5.3571 4.5874 3.5490 2.6603 1.6638
0.7045 -0.0374 -0.6555 -1.2932 -1.6353 -2.0936
-2.6746 -2.9507 -3.2854 -3.2751 -3.1599 -3.1850
-3.0130 -2.8001 -2.8298 -2.7908 -3.0706 -3.4573
-3.3476 -3.3002 -2.6718 -2.2609 -1.6046 -0.7549
-0.7326 -0.3766 -0.4491 -0.3199 0.0483 0.1710
0.7269 0.9918 1.0346 1.1406 0.7994 0.2398
-0.0605 -0.7103 -1.2392 -1.5255 -2.1930 -2.6810
-3.0166 -3.3475 -3.5353 -3.7835 -4.2808 -4.9390
-5.7291 -6.6690 -7.2026 -7.3717 -7.3615 -6.9822
-6.7666 -6.9004 -7.2592 -7.7733 -8.4017 -9.1026
-9.6399 -9.8733 -9.7831 -9.5051 -9.0468 -8.4212
-7.5660 -6.7461 -5.9912 -5.2847 -4.9659 -4.6516
-4.6563 -4.8729 -4.9370 -5.0765 -5.0086 -4.6646
-4.2658 -3.8419 -3.1391 -2.5665 -2.0059 -1.4761
-1.2641 -1.0763 -0.9229 -0.5065 0.0587 0.8842
1.8017 2.6105 3.4620 4.0644 4.5776 4.5636
4.3387 4.0616 3.5392 3.5048 3.4174 3.4834
3.7586 4.0366 4.4512 4.5469 4.5441 4.3099
4.1481 4.1639 4.3508 4.5804 4.7970 5.1308
5.0220 4.9430 4.6325 3.9595 3.3478 2.6487
1.9218 1.1056 0.2792 -0.5612 -1.2667 -1.8710
-2.0959 -1.9611 -1.8366 -1.3773 -1.0250 -0.3576
0.2783 0.4819 1.0833 1.2014 1.4245 1.3678
0.9560 0.5553 -0.5007 -1.1960 -2.2186 -3.2272
-4.3381 -5.7297 -6.8350 -8.1355 -9.1971 -10.2383
-10.8843 -11.7089 -12.3345 -12.4712 -13.1014 -13.2846
-13.2966 -13.3003 -13.0921 -12.6877 -12.1699 -11.8390
-11.6252 -12.0574 -12.8746 -13.8813 -14.9057 -15.7721
-16.4219 -16.8309 -17.2455 -16.9341 -16.7593 -16.5892
-16.0389 -15.8149 -15.0405 -14.3275 -13.3607 -12.2331
-11.2644 -9.9806 -9.2490 -8.3910 -7.8463 -7.5246
-6.9073 -6.5690 -6.0307 -5.6282 -5.0007 -4.3602
-3.4771 -2.1859 -1.1205 0.5509 1.4684 2.4631
3.7069 3.8789 4.4664 4.4590 4.2610 4.1894
3.7497 3.4643 3.2440 3.3705 3.6289 4.3317
4.7937 5.4426 6.1807 6.5748 7.4710 8.1672
9.0188 10.0227 11.0118 11.9563 13.0746 14.2515
15.2267 16.5439 17.1835 17.7171 17.7748 16.8665
16.0838 14.7275 13.4242 12.2120 11.2741 11.0110
10.7507 10.9329 10.9050 10.3742 10.0210 9.3656
8.3607 7.8485 6.9849 6.1557 5.9437 5.2791
5.0411 4.7390 4.0409 3.5891 2.6195 1.3664
-0.0485 -1.6994 -3.2184 -4.5487 -5.3686 -6.0453
-6.4636 -6.4646 -6.9210 -6.9526 -7.1506 -7.7214
-7.4983 -7.5912 -7.5717 -7.1664 -7.1701 -6.9963
-7.1571 -7.7232 -7.6776 -7.8989 -8.1508 -7.9918
-8.1052 -8.1629 -8.0272 -7.9593 -7.9453 -7.6023
-7.4071 -7.0250 -6.4542 -6.1893 -5.4893 -4.8181
-4.1981 -3.3252 -2.6363 -2.1687 -1.7300 -1.6175
-1.7755 -1.7625 -2.0637 -2.1743 -2.0888 -2.0674
-1.8062 -1.7876 -1.5542 -1.3571 -1.4594 -1.4138
-1.4241 -1.3711 -1.3199 -1.2484 -1.1582 -1.1572
-0.9109 -0.6664 -0.6385 -0.7584 -1.3311 -2.2886
-3.3492 -4.4629 -5.5542 -6.5062 -7.3093 -7.7871
-8.1497 -8.4657 -8.5336 -8.7753 -9.0774 -9.4632
-10.2115 -10.9533 -11.5892 -12.0651 -12.0995 -11.9090
-11.4786 -10.8343 -10.3500 -9.8759 -9.6881 -9.6537
-9.5933 -9.6026 -9.6388 -9.8471 -10.0581 -10.4197
-10.6688 -10.6707 -10.4178 -10.1994 -9.8591 -9.1982
-8.9462 -8.4675 -8.0743 -7.9525 -7.6197 -7.3910
-6.9875 -6.5199 -5.9947 -5.2808 -4.4543 -3.8129
-3.1910 -2.5310 -2.1182 -1.7222 -1.4424 -1.0399
-0.5174 0.4735 1.6941 2.5586 3.4083 3.6509
3.6156 3.4065 3.0439 3.2707 3.8741 4.7832
5.8867 6.9176 7.6046 8.0238 8.1149 7.6604
7.2244 7.1575 7.2532 7.6557 8.1670 8.5779
9.0436 9.0567 8.9460 9.0455 8.9470 9.0976
9.6061 10.0551 10.8954 11.7851 12.3112 13.0447
13.2102 13.1460 13.1674 12.9304 12.8923 12.7677
12.7454 12.4953 12.2750 12.1226 11.6764 11.5165
11.3603 11.4198 11.6634 12.0315 12.4628 12.6051
12.6609 12.2881 11.5518 10.6520 9.6936 8.7714
7.8678 7.2431 6.5571 5.7651 4.8866 3.9868
3.0702 2.1331 1.2035 0.1085 -0.6194 -1.4802
-1.8893 -2.0175 -2.4702 -2.2880 -2.4991 -2.5511
-2.4572 -2.6599 -2.6794 -3.0438 -3.3189 -3.7596
-4.1574 -4.6009 -5.2572 -5.9237 -6.6739 -7.2316
-8.0487 -8.4262 -8.6660 -8.5461 -7.4956 -6.4154
-4.6250 -2.9517 -1.3927 0.2806 1.2892 2.4568
3.2414 3.7155 4.1003 4.1691 4.4870 4.6349
4.9351 5.4260 5.5496 5.8824 6.0730 6.0906
6.3007 6.3723 6.4774 6.6456 7.0165 7.5148
8.1953 9.1017 9.9829 10.8642 11.5530 12.0634
12.2958 12.4046 12.3404 12.1118 11.8821 11.6126
11.5782 11.3774 11.1050 10.7648 10.2674 9.8259
9.4122 9.4094 9.7497 10.3455 11.1627 12.1425
12.8453 13.2459 13.4960 13.0730 12.6519 11.9882
11.2055 10.6654 9.6010 9.1380 8.7309 8.1331
8.0662 7.5047 7.0065 6.8271 6.6839 6.7369
7.1125 7.7697 8.6175 9.6410 10.5502 11.4593
11.7661 11.5709 11.1219 10.4349 9.9766 9.5425
9.4802 9.6048 9.6922 9.7545 9.6364 9.1986
8.2522 7.4704 6.6282 5.9003 5.5090 5.1371
4.9856 4.7105 4.6928 4.7542 4.7207 4.7198
4.6426 4.6845 4.4316 4.1490 3.8711 3.1952
2.5390 2.1532 1.6735 1.3165 1.0060 0.7039
0.6454 0.2810 0.0551 -0.1169 -0.4878 -0.6226
-0.9005 -1.2017 -1.4183 -1.7864 -1.9519 -2.1527
-2.3758 -2.2642 -2.2512 -2.0765 -1.7985 -1.6572
-1.4824 -1.6442 -2.1415 -2.7801 -3.6447 -4.4943
-5.1478 -5.7028 -5.9454 -6.0914 -6.1685 -6.1546
-6.1741 -5.8534 -5.4648 -5.0632 -4.5854 -4.3353
-4.2675 -4.5751 -5.2063 -5.9352 -6.8006 -7.5276
-7.9236 -8.1690 -8.3056 -8.4088 -8.7286 -9.1850
-9.7679 -10.2587 -10.5348 -10.6826 -10.5171 -10.4567
-10.5915 -11.0349 -11.8994 -12.8532 -13.8944 -14.7273
-15.1651 -15.1065 -14.7291 -14.2039 -13.6127 -13.2780
-13.1302 -13.1785 -13.1887 -13.0037 -12.7806 -12.4860
-12.1615 -11.8817 -11.6679 -11.3834 -11.1510 -10.8554
-10.3525 -9.9091 -9.4257 -8.9934 -8.5676 -8.1409
-7.8258 -7.6492 -7.5757 -7.4363 -7.4865 -7.4567
-7.4009 -7.2810 -6.8441 -6.3830 -5.7983 -5.3400
-5.0676 -5.0193 -5.0983 -5.2349 -5.3753 -5.3502
-5.4376 -5.2544 -5.0211 -4.8026 -4.4605 -4.1324
-3.5253 -2.9016 -1.9636 -1.1260 -0.5329 -0.0402
-0.1332 -0.2029 -0.6045 -1.0702 -1.2004 -1.5220
-1.4160 -1.0553 -0.7560 -0.3284 0.0258 0.3660
0.6459 0.8151 0.9973 1.1441 1.1813 1.1014
0.9582 0.8495 0.7612 0.7054 0.9164 1.0940
1.2353 1.5802 1.6964 1.9158 2.1407 2.2179
2.3183 2.0664 1.7726 1.3283 0.8003 0.4479
0.1189 -0.1600 -0.2418 -0.1442 -0.0726 0.2221
0.2639 0.4926 0.9286 0.9583 1.4994 2.0023
2.5405 3.3595 3.8857 4.3226 4.4806 4.3421
3.9275 3.3809 2.7962 2.3900 2.0776 1.8787
1.7830 1.4483 1.2429 0.5754 -0.0846 -0.4481
-1.2122 -1.4967 -1.6352 -1.8248 -1.7049 -1.7960
-1.9856 -2.2468 -2.7637 -3.4023 -4.0019 -4.5773
-5.0709 -5.3470 -5.4986 -5.5246 -5.5757 -5.5432
-5.4214 -5.3303 -5.1732 -5.2671 -5.1806 -4.9742
-4.6916 -4.1822 -3.9386 -3.5965 -3.3725 -3.3009
-3.3799 -3.4506 -3.4273 -3.6755 -3.6653 -3.8215
-3.8233 -3.6523 -3.5110 -3.1419 -2.9578 -2.3917
-2.0571 -1.6183 -0.9926 -0.6199 0.1368 0.5115
1.1204 1.5842 1.6177 2.0332 2.1383 2.3949
2.9238 3.3031 3.7856 4.2680 4.4530 4.7738
4.7301 4.2402 3.9622 2.9982 2.1997 1.6178
0.7430 0.3517 -0.2303 -0.7341 -0.9312 -1.0697
-1.1794 -1.0883 -0.9674 -1.1031 -1.0557 -1.3569
-1.4573 -1.6813 -1.9277 -1.8264 -2.0448 -1.6888
-1.7975 -1.8988 -1.9723 -2.8043 -3.1343 -3.6325
-4.0276 -4.1243 -3.9756 -3.5424 -3.1845 -2.6193
-2.3841 -2.2660 -2.3032 -2.6062 -2.8563 -3.1816
-3.4308 -3.6288 -3.7654 -3.6278 -3.4215 -3.1147
-2.5941 -2.4714 -2.3115 -2.2883 -2.4723 -2.4351
-2.6322 -2.4686 -2.2204 -1.8931 -1.3196 -0.8250
-0.3156 0.0070 0.4067 0.6614 1.0110 1.4618
1.9313 2.6499 3.2458 3.9439 4.2925 4.3380
4.1837 3.4745 2.7475 1.9109 1.2825 1.0036
0.7768 0.9162 0.9943 0.8325 1.0213 1.1365
0.9478 1.1347 1.0743 0.9125 1.1115 0.9469
0.9860 1.0603 0.8837 0.9125 0.7805 0.6950
0.5816 0.4087 0.4729 0.5119 0.6123 0.6421
0.7127 0.6058 0.2191 -0.1314 -0.8499 -1.4914
-2.1672 -2.8960 -3.3348 -3.8033 -3.9464 -3.8702
-3.5337 -3.0205 -2.6468 -2.1560 -1.8799 -1.5443
-1.0284 -0.7960 -0.6119 -0.3023 -0.2698 -0.1713
0.1885 0.0844 0.4553 0.7881 0.8894 1.5764
1.7716 2.0701 2.5256 2.7366 3.1856 3.8763
4.5428 5.2735 6.1864 6.7609 7.4878 7.8969
8.0939 8.6591 8.8228 9.1816 9.5423 9.5981
9.6297 9.5256 9.2643 8.8525 8.5235 8.0047
7.5920 7.3364 7.1068 7.1086 7.2304 7.7259
8.2706 9.0924 9.9895 10.6597 11.6144 12.1109
12.2940 12.0932 11.4350 10.7276 9.7701 8.8721
7.9221 7.2156 6.5704 6.0759 5.8909 5.3378
5.0496 4.8460 4.3664 4.2297 4.2083 4.2056
4.5049 4.8656 5.1268 5.5033 5.9384 6.1317
6.2414 6.0313 5.5238 5.0534 4.4213 3.9332
3.4340 3.0715 2.8019 2.5370 2.5454 2.5574
2.6207 2.6188 2.7211 2.7155 2.7769 2.7676
2.5956 2.5937 2.5593 2.6653 2.6932 2.8624
2.6365 2.4376 2.2015 1.4057 1.0646 0.5979
0.2586 0.1480 0.2698 0.5849 0.7801 1.3332
1.6521 1.7283 1.7795 1.6066 1.1529 0.9717
0.8452 0.8629 1.5555 2.2415 3.1767 3.9697
4.3778 4.6566 4.5739 4.2783 3.9920 3.8024
3.6973 3.8163 4.2049 4.6502 5.0722 5.7945
6.4099 6.8320 7.5831 8.2915 8.7405 9.4116
9.8839 10.3031 10.8553 11.0078 11.5172 11.7031
11.7143 11.8760 11.4893 11.4800 11.5163 11.6827
12.3390 13.1115 14.1666 15.4430 16.6050 17.7577
18.9206 19.5165 20.0111 20.0817 19.9042 19.9330
19.6383 19.6244 19.5974 19.6606 19.8949 19.7462
19.7043 19.4710 19.0137 18.4578 17.7494 17.2353
16.4396 15.6373 15.0247 14.2606 13.5588 12.9592
12.2304 11.4077 10.7941 10.0728 9.4639 8.9043
8.4339 7.9663 7.3946 6.8424 5.7966 5.0408
3.9030 2.7113 1.7649 0.3845 -0.5991 -1.9256
-3.2010 -4.4318 -5.8197 -7.0282 -8.3306 -9.2443
-10.1832 -11.0059 -11.4085 -11.8231 -12.1559 -12.5072
-13.0250 -13.7483 -14.6500 -15.5247 -16.5054 -17.2296
-17.6544 -18.0495 -18.2001 -18.4093 -18.7114 -19.1102
-19.5638 -19.9031 -20.1941 -20.1653 -19.6837 -19.0674
-18.3683 -17.6284 -17.1347 -16.7080 -16.5491 -16.4412
-16.2627 -16.1437 -15.6120 -15.1574 -14.6127 -14.0782
-13.6598 -12.8845 -12.4076 -11.8722 -11.3841 -11.1396
-10.5242 -10.1533 -9.6922 -8.7199 -8.1565 -7.7484
-7.2790 -7.4193 -7.7103 -7.9083 -8.4205 -8.7356
-8.6455 -8.6548 -8.3991 -7.8070 -7.6787 -7.5838
-7.3059 -7.4518 -7.3393 -7.0800 -7.0502 -6.6654
-6.5120 -6.3837 -6.1373 -6.1187 -5.9077 -5.6140
-5.2012 -4.9679 -4.7085 -4.4789 -4.6044 -4.6323
-4.8888 -5.1854 -5.2700 -5.5284 -5.6967 -5.4884
-5.3955 -5.2978 -4.9241 -4.8367 -4.6006 -4.2483
-4.1432 -3.6766 -3.3419 -3.0249 -2.3835 -2.0042
-1.5645 -1.0792 -0.6990 -0.4778 -0.5159 -0.5345
-0.7585 -0.8533 -0.8189 -0.9017 -0.6553 -0.5577
-0.7120 -0.7845 -1.0420 -1.5431 -2.1027 -2.5647
-3.0211 -3.3744 -3.4552 -3.6923 -3.6365 -3.5668
-3.7908 -3.4366 -3.5259 -3.5788 -3.3678 -3.4998
-3.3344 -3.4803 -3.4254 -3.3446 -3.5788 -3.4106
-3.7099 -4.1821 -4.3132 -4.9277 -5.2818 -5.3069
-5.7345 -5.7968 -5.8498 -6.2179 -6.4485 -6.8854
-7.4469 -7.8438 -8.2956 -8.5958 -8.5893 -8.7074
-8.6776 -8.7743 -8.7929 -8.8208 -9.3748 -9.2735
-9.6630 -10.0794 -9.8870 -10.3174 -10.2914 -10.4020
-10.7134 -10.8900 -11.0713 -11.2358 -11.3093 -10.8454
-10.5619 -9.9790 -9.3636 -9.0187 -8.8161 -8.9081
-8.9397 -9.2911 -9.3887 -9.5393 -9.8246 -9.7317
-10.0803 -10.2829 -10.2839 -10.5479 -10.3601 -10.0115
-9.6991 -9.1469 -8.6143 -7.9998 -7.3444 -6.8554
-6.2224 -5.5261 -4.8828 -4.1707 -3.4559 -2.7503
-2.1107 -1.2276 -0.5387 -0.1083 0.3862 0.3797
0.4197 0.4569 0.1854 0.0888 0.0339 -0.0321
0.0860 0.4681 0.7293 0.8901 1.1504 1.2053
1.3689 1.6041 1.6691 2.0968 2.5253 2.8860
3.5367 4.0573 4.4394 4.8354 5.1301 5.3662
5.7250 5.8180 5.9193 6.1034 6.0383 6.2522
6.4678 6.6556 6.9438 7.1892 7.2617 7.1502
6.9503 6.5655 6.3238 6.1490 6.1602 6.2661
6.3861 6.5432 6.3907 6.1658 5.6405 5.0066
4.4302 3.8297 3.5675 3.3909 3.4207 3.6540
3.8204 3.9357 3.9162 3.7739 3.3454 2.9196
2.4065 1.7772 1.5169 1.1562 1.0958 1.2278
1.1162 1.3356 1.3142 1.2269 1.2287 1.0419
0.9545 0.7491 0.5362 0.4126 0.3540 0.2750
0.1839 -0.0011 -0.3181 -0.7160 -1.3918 -1.8352
-2.2266 -2.5482 -2.5064 -2.5668 -2.4571 -2.2600
-2.1159 -1.9978 -1.9700 -1.9142 -1.9374 -1.8268
-1.6957 -1.6502 -1.4949 -1.4029 -1.2142 -0.8916
-0.6638 -0.2399 -0.0019 0.0222 0.0464 -0.3673
-0.8200 -1.4298 -2.1976 -2.7907 -3.1979 -3.2527
-3.1021 -2.6475 -2.1205 -1.7449 -1.3349 -0.9352
-0.6479 -0.1822 0.4583 1.0393 1.7542 2.3324
2.8074 3.2192 3.3866 3.4665 3.3801 3.1625
2.8353 2.4979 2.0303 1.6045 1.2364 0.7586
0.6675 0.5216 0.4035 0.3477 0.0605 -0.1933
-0.6228 -0.9035 -1.1963 -1.4436 -1.5393 -1.7494
-1.5709 -1.3711 -1.2493 -0.9146 -0.9035 -1.0606
-1.0345 -1.1767 -1.2855 -1.1098 -1.0364 -0.7333
-0.1886 0.2539 0.8405 1.2449 1.6251 2.1308
2.5724 3.1571 3.7456 4.3303 4.8695 5.3436
5.5760 5.6736 5.7033 5.6029 5.6531 5.6206
5.6392 5.8019 6.2983 7.0968 7.9707 9.2628
10.4648 11.5562 12.6531 13.3708 13.9964 14.3682
14.4575 14.3534 14.0503 13.5539 12.8084 12.1484
11.3517 10.7298 10.3254 9.8616 9.7156 9.5659
9.4618 9.5418 9.6255 9.7807 10.1219 10.4063
10.5709 10.7029 10.4947 10.1172 9.6199 8.9720
8.3622 7.8360 7.4512 7.1704 6.9826 6.8451
6.6517 6.4816 6.2650 5.9964 5.7482 5.3754
5.0472 4.7330 4.5722 4.3677 4.1864 4.2153
3.9522 3.8583 3.7495 3.5041 3.3731 3.2160
3.1825 3.2522 3.4967 3.6557 3.8500 3.9876
3.9913 4.1456 4.2051 4.2163 4.2497 4.4031
4.6058 4.7936 4.9627 5.0418 5.0157 4.8057
4.6606 4.3585 4.1085 4.1224 4.1233 4.4292
4.7174 5.0204 5.5308 5.9203 6.2568 6.3814
6.2912 6.1992 6.0012 5.6238 5.2529 4.9182
4.4887 4.0555 3.7943 3.6400 3.6865 3.9496
4.2034 4.6403 5.1255 5.5402 5.8674 6.0775
6.2560 6.1453 6.0143 5.7233 5.2734 5.0159
4.5966 4.2936 4.0175 3.6159 3.2831 2.8992
2.6231 2.5757 2.6473 2.8183 3.2943 3.7563
4.2843 4.7529 5.0383 5.3422 5.3738 5.4333
5.2688 5.0671 4.9174 4.7073 4.6506 4.3355
4.0176 3.5212 2.8621 2.1751 1.3738 0.7882
0.1988 -0.2437 -0.4807 -0.7801 -0.8033 -0.7643
-0.7187 -0.4751 -0.3747 -0.2539 -0.2966 -0.4919
-0.9715 -1.8156 -2.8131 -4.0615 -5.0887 -6.2517
-7.2668 -8.0346 -8.7374 -8.9810 -9.1920 -9.1901
-9.1845 -9.2059 -9.2803 -9.4736 -9.5638 -9.7916
-9.7795 -9.6568 -9.4374 -9.1799 -9.1213 -9.0767
-9.3899 -9.6837 -9.9356 -10.3140 -10.4599 -10.6830
-10.6328 -10.5101 -10.5315 -10.4013 -10.4998 -10.5705
-10.5919 -10.4552 -10.1243 -9.5935 -8.8033 -8.0447
-7.1988 -6.6159 -6.1195 -5.7244 -5.4985 -5.3219
-5.3005 -5.2048 -5.3191 -5.2754 -5.2800 -5.3916
-5.3776 -5.4539 -5.3228 -5.2754 -5.1164 -4.9017
-4.6544 -4.2203 -3.9051 -3.6281 -3.5407 -3.7034
-4.0036 -4.4471 -5.0522 -5.5440 -6.0079 -6.2951
-6.3509 -6.3230 -6.0422 -5.8703 -5.6537 -5.5319
-5.5012 -5.4417 -5.3682 -5.1823 -5.1377 -4.9825
-4.9220 -4.8095 -4.6180 -4.4777 -4.2806 -4.2573
-4.1876 -4.1188 -4.0035 -3.8353 -3.6642 -3.5173
-3.3723 -3.2403 -3.0339 -2.6398 -2.2512 -1.6321
-1.0632 -0.4896 0.0998 0.4809 0.8872 1.0498
1.1633 1.1754 1.0982 1.0898 1.0443 1.1456
1.2730 1.3883 1.5258 1.7917 2.0818 2.4266
3.0467 3.7021 4.4681 5.2991 6.1618 7.0738
7.9020 8.6866 9.3606 10.0150 10.5003 10.8852
11.1873 11.2589 11.2896 11.1724 11.0637 10.9428
10.8006 10.6918 10.4046 10.1796 9.9138 9.5996
9.3746 9.0725 8.9256 8.8605 8.6830 8.4329
8.0388 7.5861 7.1111 6.5821 6.0439 5.4573
4.8224 4.1819 3.5377 2.8395 2.0931 1.4517
0.8995 0.4114 0.0368 -0.3304 -0.7134 -1.0973
-1.4440 -1.6932 -1.8791 -1.9460 -1.8819 -1.8084
-1.8465 -2.1003 -2.5698 -3.2679 -4.0599 -4.7608
-5.4013 -5.9070 -6.2993 -6.6321 -6.9128 -7.2624
-7.6500 -8.0813 -8.4866 -8.7758 -9.0277 -9.1364
-9.1290 -8.9923 -8.7971 -8.6642 -8.5136 -8.4810
-8.4411 -8.3713 -8.3211 -8.1938 -8.0422 -7.8647
-7.6843 -7.5235 -7.3989 -7.3794 -7.5003 -7.7020
-7.9269 -8.0004 -7.9288 -7.7866 -7.5421 -7.1656
-6.6478 -6.1337 -5.6884 -5.4318 -5.2654 -5.1399
-5.0312 -4.8806 -4.7411 -4.5552 -4.4381 -4.3321
-4.2968 -4.3386 -4.4743 -4.7439 -5.0386 -5.3844
-5.6224 -5.7646 -5.7841 -5.6828 -5.5108 -5.2412
-4.9502 -4.5328 -4.0903 -3.6088 -3.0798 -2.5704
-1.9652 -1.5832 -1.3740 -1.2968 -1.4716 -1.6092
-1.7709 -1.8314 -1.7068 -1.4809 -1.1267 -0.6898
-0.2956 -0.0437 0.1580 0.1999 0.2343 0.3040
0.4286 0.7558 1.1090 1.6594 2.2404 2.7015
3.1709 3.4898 3.7157 3.8719 3.9676 3.9788
3.9816 4.0736 4.1591 4.3413 4.4975 4.5682
4.6091 4.5533 4.5189 4.5161 4.6147 4.8610
5.2440 5.7172 6.2740 6.8058 7.0939 7.3301
7.3329 7.0791 6.7872 6.3196 5.9310 5.8148
5.8855 6.1281 6.5427 6.9016 7.0912 7.1767
7.0280 6.7389 6.3810 6.0045 5.6773 5.4114
5.3240 5.2804 5.2190 5.1512 4.8937 4.4400
3.9176 3.3198 2.7993 2.4841 2.2146 2.1309
2.1960 2.1346 2.0110 1.7145 1.2636 0.8192
0.3033 -0.1466 -0.4580 -0.6477 -0.7136 -0.8113
-1.1180 -1.5745 -2.1257 -2.8889 -3.6270 -4.3242
-4.9693 -5.4090 -5.7047 -5.7102 -5.5224 -5.3086
-5.0177 -4.7667 -4.7118 -4.6421 -4.6030 -4.6765
-4.6477 -4.6328 -4.6058 -4.5222 -4.5008 -4.5565
-4.6421 -4.7462 -4.7768 -4.8057 -4.7713 -4.5045
-4.3724 -4.2618 -3.9588 -3.8035 -3.7282 -3.4716
-3.3294 -3.2244 -2.8600 -2.5374 -2.0716 -1.5501
-1.1262 -0.5564 -0.1436 0.2217 0.5341 0.7107
0.9301 1.0733 1.2796 1.6003 1.9880 2.4221
2.8590 3.2718 3.6046 3.8379 3.9811 4.0675
4.0620 4.1085 4.2061 4.3046 4.3688 4.3976
4.4831 4.4134 4.4404 4.5157 4.4273 4.4896
4.4878 4.4701 4.5222 4.4580 4.4413 4.3428
4.0546 3.7525 3.4309 3.1185 2.8173 2.5784
2.4715 2.4548 2.5329 2.6640 2.8889 3.1836
3.4634 3.8650 4.4814 5.0326 5.5681 6.1035
6.3843 6.5581 6.5200 6.2960 5.9213 5.4203
5.0215 4.5892 4.2574 3.9822 3.6541 3.4793
3.2776 3.0740 2.9680 2.8304 2.8314 2.9578
3.1214 3.3892 3.6095 3.7889 3.9516 3.9088
3.7183 3.4626 3.1140 2.8305 2.6446 2.5191
2.5498 2.6139 2.6576 2.6743 2.5396 2.3741
2.0887 1.7141 1.4082 1.0197 0.4982 -0.0484
-0.4826 -0.8470 -1.1007 -1.3257 -1.5358 -1.6213
-1.7840 -1.9281 -2.0973 -2.3343 -2.4626 -2.4561
-2.2590 -2.0210 -1.7207 -1.3015 -0.9222 -0.6331
-0.4397 -0.1841 0.1673 0.5689 0.9817 1.2438
1.4576 1.5115 1.3015 1.0700 0.7112 0.2055
-0.1905 -0.5233 -0.6749 -0.5196 -0.3421 0.0326
0.5532 0.9362 1.3247 1.5897 1.7208 1.8639
1.9615 2.1177 2.4663 2.8233 3.2370 3.7092
3.9574 4.0839 4.1341 4.0095 3.8608 3.6944
3.3922 3.1831 3.0994 3.0427 3.0697 3.1171
3.3133 3.5968 3.8050 4.0235 4.2038 4.4167
4.7105 4.6872 4.4902 4.5013 4.2745 3.8599
3.5559 3.1079 2.6951 2.3567 1.7925 1.2589
0.9019 0.6007 0.4381 0.3749 0.3609 0.4120
0.4427 0.4678 0.5292 0.4771 0.4204 0.3414
0.1183 -0.1243 -0.3957 -0.6672 -1.0130 -1.4006
-1.8701 -2.4994 -3.1371 -3.7832 -4.4042 -4.9824
-5.5662 -5.9585 -6.1927 -6.6584 -6.9141 -7.1074
-7.7433 -7.9524 -8.1421 -8.5753 -8.6097 -8.8774
-9.0875 -9.1674 -9.5764 -9.8330 -10.2216 -10.7338
-11.1465 -11.6364 -12.0250 -12.4730 -13.0094 -13.4566
-13.8870 -14.1882 -14.1807 -14.0441 -13.6620 -13.0261
-12.4228 -11.6735 -10.9996 -10.4409 -9.8952 -9.4918
-9.0018 -8.5426 -8.0880 -7.5609 -7.0794 -6.5170
-6.0131 -5.5846 -5.1923 -4.8688 -4.5267 -4.2134
-3.9122 -3.5376 -3.1676 -2.8060 -2.3114 -1.9740
-1.4348 -0.8826 -0.7264 -0.0766 0.4291 0.6578
1.0705 1.2146 1.2602 1.1849 1.0287 0.8567
0.7703 0.7917 0.9330 1.2239 1.4712 1.7966
2.1043 2.4362 2.8136 3.1352 3.4271 3.6558
3.8696 4.0351 4.1708 4.1448 4.0472 4.0165
3.8938 3.7934 3.7646 3.7432 3.7832 3.9013
3.9980 4.1309 4.2527 4.2527 4.2118 4.0593
3.8530 3.6131 3.3696 3.2348 3.1799 3.2348
3.3306 3.4839 3.6197 3.7638 3.9534 4.0733
4.2109 4.2936 4.3764 4.4126 4.6265 4.9184
4.8784 5.0634 5.2540 5.2893 5.4222 5.4510
5.4399 5.3674 5.3693 5.4064 5.4529 5.4883
5.3544 5.2382 5.0811 4.9026 4.7353 4.5364
4.4006 4.2036 4.0465 3.9535 3.8197 3.7908
3.8885 4.0344 4.2770 4.4407 4.4388 4.3663
4.0883 3.7621 3.4302 3.0695 2.7627 2.5201
2.3686 2.3221 2.3519 2.3426 2.3305 2.2431
2.1483 1.9457 1.5980 1.2847 0.8329 0.4146
0.0930 -0.2547 -0.5159 -0.7251 -0.8757 -1.0049
-1.0495 -1.0634 -1.1369 -1.1406 -1.2605 -1.3218
-1.2707 -1.2010 -1.0058 -0.8245 -0.6414 -0.5196
-0.4471 -0.4294 -0.4275 -0.3968 -0.4312 -0.4322
-0.4117 -0.4229 -0.4749 -0.5177 -0.6301 -0.7938
-0.8904 -0.9564 -0.9239 -0.9127 -0.9573 -0.9648
-1.0457 -1.1944 -1.3645 -1.6582 -1.9520 -2.2021
-2.3945 -2.4530 -2.4661 -2.3499 -2.2216 -2.0942
-1.9222 -1.7809 -1.6182 -1.4416 -1.1358 -0.7741
-0.2898 0.2531 0.6649 1.0433 1.2348 1.3528
1.4142 1.4170 1.4904 1.5285 1.6010 1.7340
1.9032 2.0807 2.2313 2.3596 2.4554 2.4637
2.5298 2.6329 2.6543 2.8086 2.9825 3.1805
3.4538 3.6732 3.8507 3.9763 4.0311 4.0014
3.9893 3.9196 3.8861 3.9010 3.7513 3.6165
3.5468 3.4232 3.2242 3.0560 2.8682 2.6191
2.5113 2.4387 2.4081 2.4313 2.3904 2.4044
2.3151 2.1348 1.9740 1.6867 1.3335 1.0314
0.6995 0.3463 0.1408 -0.0293 -0.1594 -0.1966
-0.2979 -0.5276 -0.8538 -1.3047 -1.8215 -2.3022
-2.8599 -3.3247 -3.7867 -4.2822 -4.6308 -5.1495
-5.6915 -6.1972 -6.7428 -7.1091 -7.3991 -7.6260
-7.7989 -7.8881 -7.9931 -8.2925 -8.6643 -9.0278
-9.4145 -9.9258 -10.4380 -10.8498 -11.2597 -11.5674
-11.6790 -11.6511 -11.4884 -11.3666 -11.3369 -11.2448
-11.2104 -11.1630 -11.0515 -10.9520 -10.7577 -10.4426
-10.1423 -9.7974 -9.3363 -8.9961 -8.5703 -8.0014
-7.4501 -6.7836 -6.1180 -5.5007 -4.9318 -4.3833
-3.8507 -3.4389 -3.0475 -2.7063 -2.4293 -2.0937
-1.8325 -1.5759 -1.2459 -1.0154 -0.6286 -0.1815
0.1439 0.7082 1.1813 1.6043 2.1267 2.4819
2.8853 3.1763 3.4273 3.6420 3.8317 4.0408
4.1338 4.2574 4.2695 4.2342 4.1738 4.1989
4.1254 3.9553 3.8912 3.6597 3.5844 3.5789
3.5789 3.6579 3.7034 3.8178 3.8736 3.9461
3.9833 4.0753 4.1738 4.2752 4.4267 4.5355
4.6526 4.5504 4.5160 4.3245 4.0316 3.8123
3.3707 3.0686 2.6782 2.3491 2.0432 1.7802
1.7411 1.6268 1.6640 1.6361 1.4911 1.4576
1.2959 1.0421 1.0114 0.8357 0.7177 0.7855
0.6777 0.7670 0.8646 0.8450 0.8664 0.9176
0.9445 1.0421 1.2541 1.5479 1.8388 2.0963
2.4394 2.5267 2.7164 2.7303 2.4998 2.4477
2.1298 2.1140 2.1800 2.2869 2.6207 2.8949
3.3830 3.6349 3.9156 4.1527 4.1638 4.2605
4.2038 4.2224 4.2326 4.2661 4.3107 4.3154
4.3935 4.3247 4.3321 4.4400 4.5218 4.6082
4.7319 4.8202 4.9085 5.0768 5.0768 5.0777
5.0405 4.7551 4.5107 4.0849 3.4658 3.0233
2.3968 1.8966 1.5889 1.2747 1.2348 1.1725
1.2190 1.2469 1.3287 1.3659 1.2868 1.2859
1.1539 1.1456 0.9067 0.7003 0.4279 0.0737
-0.0676 -0.3957 -0.5035 -0.6253 -0.6550 -0.5593
-0.5221 -0.3585 -0.1716 0.0775 0.2253 0.4391
0.4466 0.3889 0.2523 -0.1047 -0.2878 -0.7136
-0.9023 -1.0185 -1.2453 -1.3113 -1.5669 -1.6227
-1.7668 -1.9155 -1.9564 -2.0456 -2.0587 -2.0726
-1.9731 -1.8857 -1.6227 -1.4535 -1.1857 -0.7126
-0.5722 -0.3249 -0.1455 -0.1130 0.0981 0.2673
0.5554 0.9821 1.3214 1.6524 1.9434 2.0531
2.1126 2.1600 2.1144 2.2520 2.4296 2.5950
2.9892 3.2551 3.3610 3.4289 3.2848 2.9241
2.5932 2.2976 2.0187 1.9035 1.8607 1.9211
2.0187 2.0671 2.0829 2.0401 1.9788 1.9193
1.8031 1.6637 1.4908 1.1933 0.8782 0.4143
-0.1779 -0.7421 -1.3585 -1.9357 -2.4526 -2.9462
-3.3125 -3.5439 -3.7057 -3.9102 -3.9427 -3.9567
-4.1482 -4.0868 -4.1640 -4.3313 -4.3917 -4.6129
-4.8639 -5.0898 -5.2228 -5.3715 -5.3826 -5.5193
-5.6485 -5.6717 -5.9209 -5.9497 -6.1114 -6.2871
-6.3838 -6.6088 -6.6450 -6.7194 -6.6915 -6.6245
-6.5911 -6.4925 -6.4526 -6.4200 -6.4535 -6.3921
-6.3466 -6.3298 -6.1625 -6.0268 -5.8743 -5.6410
-5.4932 -5.2747 -5.0944 -4.9902 -4.6742 -4.5942
-4.3702 -4.0718 -3.9537 -3.6516 -3.5186 -3.3457
-3.2955 -3.2816 -3.3243 -3.4870 -3.5075 -3.5316
-3.3671 -3.2090 -2.9116 -2.5425 -2.1140 -1.5618
-1.0877 -0.5150 -0.0391 0.4890 1.0235 1.4725
1.9364 2.3194 2.7107 3.0547 3.3708 3.5483
3.7008 3.7909 3.7984 4.0215 4.1256 4.3748
4.7048 4.9753 5.4308 5.7125 6.0834 6.3251
6.4803 6.6783 6.6207 6.6718 6.5770 6.3827
6.3102 6.0862 5.8603 5.8306 5.7218 5.6419
5.7200 5.6967 5.8938 6.1550 6.3986 6.8671
7.1943 7.4481 7.7419 7.9473 8.1881 8.4233
8.6195 8.8184 9.0461 9.1549 9.1651 9.1419
8.8853 8.7710 8.6344 8.4345 8.4057 8.3332
8.4522 8.5758 8.7980 9.0323 9.1912 9.3018
9.2368 9.2628 9.0992 8.9681 8.8389 8.6939
8.5136 8.1929 7.9335 7.3832 6.9230 6.2853
5.6039 5.0490 4.3025 3.8061 3.1377 2.6487
2.2871 1.8465 1.6885 1.4049 1.2488 1.1177
0.9643 0.9123 0.6929 0.4781 0.1974 -0.0740
-0.3492 -0.7694 -1.1263 -1.5716 -1.9825 -2.3887
-2.8684 -3.2505 -3.7617 -4.1977 -4.6709 -5.1617
-5.4694 -5.8264 -5.9798 -6.1248 -6.3274 -6.4687
-6.6481 -6.7662 -6.9065 -7.0497 -7.1975 -7.2905
-7.4569 -7.6697 -7.8491 -8.0676 -8.2182 -8.3846
-8.5073 -8.6226 -8.6727 -8.7648 -8.8912 -8.8912
-8.8875 -8.6969 -8.5007 -8.2711 -7.9895 -7.7691
-7.4624 -7.2616 -7.1138 -6.9929 -6.9241 -6.8693
-6.8497 -6.8376 -6.8228 -6.7363 -6.6340 -6.4992
-6.3626 -6.2520 -6.0958 -5.9749 -5.8931 -5.8383
-5.8113 -5.7946 -5.8076 -5.7574 -5.6570 -5.5529
-5.4153 -5.2154 -5.0155 -4.8250 -4.5851 -4.4615
-4.3146 -4.1463 -4.0608 -3.8516 -3.7085 -3.5709
-3.4352 -3.4249 -3.3729 -3.3840 -3.4026 -3.3747
-3.3822 -3.3636 -3.2436 -3.1033 -2.9861 -2.7863
-2.6989 -2.6394 -2.5576 -2.6366 -2.7565 -2.9499
-3.1441 -3.2399 -3.2929 -3.2585 -3.1627 -3.0846
-2.9359 -2.7685 -2.7035 -2.5919 -2.5696 -2.5185
-2.3576 -2.2340 -2.0267 -1.8891 -1.7515 -1.6297
-1.5061 -1.3369 -1.2932 -1.1147 -0.9204 -0.7875
-0.5737 -0.3859 -0.1907 0.0148 0.1617 0.2648
0.3968 0.4480 0.5837 0.8198 1.0690 1.4166
1.7467 2.1613 2.4922 2.8734 3.3010 3.6394
4.1190 4.4862 4.8850 5.2894 5.6176 6.0034
6.3287 6.6522 6.8772 7.1096 7.3253 7.5335
7.8366 8.0997 8.4241 8.7299 9.0302 9.2849
9.4681 9.5843 9.5396 9.4969 9.3742 9.2877
9.3221 9.3556 9.3881 9.3891 9.3770 9.3147
9.1864 9.0228 8.8137 8.5924 8.7393 8.9271
8.8258 9.0675 9.2283 9.1967 9.3501 9.2032
8.9150 8.6436 8.3136 7.9594 7.5950 7.2436
6.7770 6.3521 5.8771 5.2738 4.6445 3.9807
3.3012 2.6003 1.9598 1.3667 0.9242 0.6388
0.4510 0.3367 0.2038 0.0811 -0.1346 -0.4255
-0.7332 -1.0846 -1.3793 -1.5587 -1.6926 -1.7958
-1.9715 -2.1704 -2.3442 -2.6603 -2.9429 -3.1994
-3.4765 -3.6419 -3.8474 -3.9803 -3.8529 -3.8929
-4.0528 -4.0295 -4.1188 -4.2080 -4.1978 -4.2647
-4.4004 -4.4785 -4.4423 -4.4209 -4.3837 -4.3372
-4.2851 -4.2219 -4.1782 -4.0657 -3.9402 -3.8687
-3.7645 -3.6158 -3.5080 -3.3406 -3.1612 -2.9985
-2.7131 -2.4287 -2.0643 -1.6627 -1.3299 -0.9813
-0.7303 -0.5276 -0.3612 -0.2617 -0.2329 -0.2812
-0.3110 -0.3082 -0.2301 -0.0795 0.0767 0.3091
0.5405 0.7088 0.8687 0.9728 1.0351 1.0537
1.1959 1.1699 1.3084 1.4423 1.1978 1.7128
1.4869 0.9245 1.5399 1.5009 1.1328 1.1783
1.3224 1.2471 1.0603 1.0370 0.8632 0.7163
0.4728 0.1772 -0.0608 -0.2932 -0.5814 -0.8212
-0.9188 -1.1531 -1.1837 -1.1958 -1.2135 -1.0396
-0.9857 -0.8584 -0.8119 -0.8621 -0.9569 -1.1921
-1.3808 -1.5109 -1.5360 -1.4207 -1.2153 -1.0024
-0.7124 -0.4549 -0.2820 -0.1704 -0.1425 -0.0886
-0.1648 -0.1834 -0.2057 -0.2661 -0.2791 -0.2550
-0.0821 -0.1025 0.1048 0.2322 -0.0114 0.3716
0.7146 0.5055 0.6440 0.9917 1.0363 1.1079
1.1544 1.0642 1.0865 1.0568 1.0047 1.1061
1.2204 1.4035 1.6750 1.8739 2.1482 2.4875
2.6892 2.8593 3.0146 3.0434 2.9876 2.8249
2.5758 2.3397 2.0748 1.8405 1.6555 1.5124
1.4399 1.3887 1.4101 1.4529 1.4352 1.3627
1.2670 1.2056 1.1387 1.0383 0.9602 0.9230
0.8812 0.8431 0.8849 0.7669 0.6507 0.6516
0.1961 0.0492 0.0502 -0.5141 -0.5011 -0.3049
-0.5782 -0.6554 -0.5011 -0.4406 -0.5038 -0.4899
-0.4034 -0.3458 -0.2538 -0.1078 -0.0167 0.0298
-0.0520 -0.2928 -0.5782 -0.9472 -1.3414 -1.7560
-2.1827 -2.5554 -2.8185 -3.0267 -3.2201 -3.3270
-3.3707 -3.3288 -3.3028 -3.1959 -3.0267 -2.8975
-2.7339 -2.6279 -2.4987 -2.3973 -2.3285 -2.2532
-2.2477 -2.2179 -2.1380 -2.1036 -2.1389 -2.1621
-2.2160 -2.2830 -2.2681 -2.1045 -2.0217 -2.1639
-2.1017 -1.8813 -1.9250 -2.0040 -1.9222 -2.0449
-2.2327 -2.3694 -2.6733 -2.8379 -3.0405 -3.3426
-3.3622 -3.3677 -3.4514 -3.3891 -3.4263 -3.6196
-3.6912 -3.9255 -4.1672 -4.2304 -4.3670 -4.3112
-4.1755 -4.0816 -3.9050 -3.7507 -3.6772 -3.6261
-3.6187 -3.7200 -3.8194 -3.9496 -4.0965 -4.2238
-4.3642 -4.5213 -4.7118 -4.8327 -4.9638 -5.1190
-5.2147 -5.3579 -5.5076 -5.5987 -5.7167 -5.7595
-5.7306 -5.7148 -5.5745 -5.5847 -5.7808 -5.7111
-5.6172 -5.9286 -6.0829 -5.9286 -6.2568 -6.4743
-6.2289 -6.3637 -6.3990 -6.0597 -6.0002 -5.8607
-5.5112 -5.4573 -5.3448 -5.1077 -5.0129 -4.7777
-4.4523 -4.1353 -3.6956 -3.2243 -2.7437 -2.2464
-1.7704 -1.3103 -0.8687 -0.4736 -0.1380 0.1502
0.3538 0.5499 0.7554 0.8781 1.0659 1.3206
1.4070 1.5976 1.9750 2.0884 2.1628 2.5542
2.9297 3.1157 3.4308 3.8092 3.9849 4.1661
4.4143 4.5677 4.7295 4.8912 4.9535 5.0651
5.1041 5.0028 4.9675 4.8941 4.8225 4.8996
5.0502 5.2482 5.4500 5.5978 5.7856 5.9910
6.1044 6.2058 6.3554 6.4428 6.4428 6.4902
6.4847 6.2997 6.1035 5.9102 5.6229 5.3627
5.1777 5.0038 4.9165 5.0066 5.0764 4.9592
4.9332 5.0104 4.8756 4.7873 4.7919 4.6376
4.6822 4.7678 4.6562 4.7390 4.8133 4.6767
4.7148 4.7882 4.6804 4.6925 4.6432 4.5642
4.5800 4.5466 4.6832 4.8589 5.0839 5.3693
5.5840 5.7625 5.7941 5.8387 5.8685 5.8536
5.8666 5.7783 5.7012 5.6361 5.5088 5.3535
5.1927 5.0291 4.8469 4.7093 4.6080 4.5541
4.5160 4.4490 4.4128 4.3245 4.2278 4.1404
4.0354 3.9824 3.9127 3.7770 3.6180 3.4749
3.2443 3.0798 3.0528 3.0854 3.2202 3.3503
3.5111 3.7184 3.8969 4.0169 4.1777 4.3069
4.3924 4.5830 4.6992 4.7978 4.8907 4.8563
4.8303 4.7931 4.7141 4.6686 4.6332 4.5654
4.4975 4.4334 4.3395 4.2140 4.0318 3.8152
3.5633 3.2482 3.0139 2.8243 2.6309 2.5789
2.5119 2.3762 2.2442 1.9951 1.6939 1.3732
0.9986 0.6611 0.3395 0.0996 -0.0100 -0.0881
-0.0732 0.0179 0.0448 0.0355 0.0197 -0.0426
-0.1402 -0.2935 -0.3995 -0.4599 -0.5510 -0.6207
-0.7128 -0.8076 -0.9498 -1.1385 -1.2742 -1.3932
-1.4769 -1.4332 -1.3542 -1.3002 -1.2073 -1.1506
-1.1115 -1.0836 -1.0780 -1.0158 -0.8949 -0.7555
-0.6002 -0.3511 -0.0545 0.1788 0.3861 0.5665
0.7338 0.9030 1.0368 1.2070 1.3464 1.4552
1.5574 1.5872 1.5658 1.5054 1.4282 1.3576
1.3195 1.2712 1.3000 1.3725 1.3706 1.4236
1.4664 1.4599 1.4571 1.4980 1.5919 1.6523
1.7221 1.7695 1.7202 1.6021 1.3948 1.1466
0.8269 0.4764 0.1483 -0.1882 -0.4653 -0.7785
-1.0974 -1.4237 -1.7983 -2.1404 -2.5001 -2.7948
-2.9659 -3.0756 -3.0923 -3.0449 -3.0161 -3.0077
-3.0811 -3.2484 -3.4864 -3.7746 -4.0395 -4.3147
-4.5517 -4.6809 -4.7711 -4.8222 -4.8752 -4.9542
-4.9747 -5.0277 -5.1253 -5.1299 -5.0593 -4.9728
-4.8770 -4.7934 -4.7618 -4.7711 -4.8194 -4.8873
-4.9635 -5.0239 -5.0053 -5.0165 -5.0313 -5.0369
-5.1708 -5.3288 -5.6132 -5.9739 -6.2547 -6.5875
-6.7724 -6.8896 -6.9909 -6.9676 -6.9565 -6.9119
-6.8449 -6.7696 -6.6822 -6.5809 -6.4322 -6.2946
-6.1774 -6.0817 -6.0994 -6.2165 -6.3736 -6.6320
-6.9220 -7.1749 -7.3822 -7.4584 -7.4054 -7.2474
-7.0382 -6.7965 -6.5000 -6.3112 -6.2294 -6.1579
-6.1188 -6.0630 -5.9663 -5.8399 -5.6168 -5.3444
-5.1408 -4.9094 -4.6946 -4.5161 -4.3321 -4.1936
-3.9946 -3.7799 -3.5995 -3.3030 -2.9599 -2.6188
-2.2553 -1.9597 -1.7236 -1.5878 -1.5404 -1.5813
-1.6622 -1.7152 -1.7700 -1.7431 -1.6929 -1.6027
-1.4372 -1.3191 -1.1723 -0.9464 -0.6944 -0.3812
-0.0112 0.3914 0.8617 1.3321 1.7932 2.3045
2.7349 3.0975 3.4284 3.6506 3.8077 3.8393
3.8179 3.8309 3.8170 3.8561 3.8626 3.8049
3.7566 3.6915 3.6432 3.6302 3.6395 3.6330
3.6413 3.6785 3.7101 3.6832 3.6098 3.5456
3.4183 3.2965 3.2426 3.1747 3.0725 2.9572
2.8150 2.6449 2.4552 2.2461 2.1048 2.0044
1.9216 1.9263 1.9709 2.0723 2.1940 2.2721
2.3484 2.4162 2.4227 2.3028 2.1169 1.8659
1.5285 1.2078 0.8675 0.5608 0.3005 0.0430
-0.1216 -0.2814 -0.4506 -0.5603 -0.7137 -0.8615
-0.9582 -1.0409 -1.1171 -1.2166 -1.2891 -1.3597
-1.4155 -1.4694 -1.5568 -1.6302 -1.6767 -1.6702
-1.6628 -1.6637 -1.7269 -1.8087 -1.9212 -2.1248
-2.2540 -2.4185 -2.5412 -2.6174 -2.6955 -2.6658
-2.6974 -2.6723 -2.6369 -2.6620 -2.6741 -2.7764
-2.8489 -2.8647 -2.8749 -2.8582 -2.7931 -2.7373
-2.7364 -2.7326 -2.8014 -2.9120 -3.0190 -3.1091
-3.1342 -3.1398 -3.0756 -3.0115 -2.9771 -2.9390
-2.9455 -2.9957 -3.1240 -3.2866 -3.4140 -3.4400
-3.3350 -3.1035 -2.7790 -2.3895 -1.9656 -1.5696
-1.1708 -0.8957 -0.7032 -0.4857 -0.3741 -0.2403
-0.0478 0.1102 0.3157 0.4412 0.4700 0.5351
0.5704 0.5592 0.5620 0.5564 0.6169 0.7061
0.7982 0.9739 1.1142 1.2397 1.3206 1.3578
1.4164 1.3959 1.3903 1.4247 1.4108 1.4303
1.5679 1.6692 1.8106 1.9528 1.9900 2.1257
2.2373 2.3786 2.5459 2.6928 2.8806 2.9456
2.9782 2.9931 2.9763 3.0209 3.1121 3.2199
3.3974 3.6410 3.8929 4.1653 4.4098 4.6998
5.0401 5.3998 5.7875 6.1668 6.5479 6.9160
7.2609 7.5370 7.8113 8.0632 8.2389 8.3579
8.4378 8.4741 8.4127 8.3347 8.2343 8.1367
8.0986 8.0855 8.1506 8.2575 8.3412 8.4397
8.4899 8.4732 8.4639 8.4732 8.5132 8.5876
8.6870 8.8256 8.9241 8.9594 8.9808 8.9185
8.8358 8.7057 8.5067 8.3608 8.2232 8.1303
8.0587 8.0048 7.9787 7.9769 8.0020 8.0011
8.1154 8.2074 8.2642 8.3887 8.4306 8.4947
8.4705 8.3562 8.2725 8.1842 8.0745 7.9044
7.7352 7.5214 7.2454 6.8670 6.4989 6.1178
5.6334 5.2421 4.8963 4.5886 4.3413 4.1693
4.0420 3.8886 3.7547 3.5967 3.4703 3.3476
3.1988 3.0352 2.8410 2.6671 2.4310 2.1679
1.8509 1.4224 0.9539 0.4073 -0.1588 -0.7808
-1.3887 -1.9576 -2.5172 -2.9374 -3.3028 -3.5584
-3.7657 -3.9869 -4.1998 -4.4396 -4.6758 -4.9258
-5.1461 -5.3655 -5.4956 -5.6109 -5.7122 -5.7847
-5.8833 -5.9307 -6.0441 -6.1566 -6.2756 -6.4317
-6.6260 -6.8454 -7.0555 -7.3167 -7.5565 -7.7954
-8.1059 -8.3867 -8.6181 -8.8291 -8.9342 -8.9807
-8.9704 -8.9221 -8.8895 -8.8533 -8.8812 -8.9379
-8.9983 -9.0978 -9.1647 -9.1879 -9.1749 -9.0903
-8.9694 -8.7714 -8.5186 -8.2332 -7.8846 -7.5248
-7.1641 -6.8518 -6.5543 -6.2466 -5.9361 -5.5996
-5.2779 -4.9219 -4.5807 -4.2935 -3.9858 -3.7004
-3.4512 -3.2430 -3.0404 -2.8256 -2.6415 -2.4045
-2.1656 -1.9425 -1.6078 -1.2750 -0.9794 -0.6893
-0.4346 -0.1957 -0.0405 0.1436 0.2998 0.4327
0.6502 0.8139 1.0370 1.2722 1.5343 1.8058
2.0419 2.3263 2.4909 2.6173 2.7047 2.7428
2.8311 2.9455 3.0719 3.1918 3.2988 3.3499
3.3638 3.3081 3.1723 2.9985 2.8414 2.7392
2.6890 2.6462 2.6165 2.6509 2.5914 2.5300
2.4966 2.4082 2.3357 2.1889 2.0150 1.7455
1.3922 1.0613 0.6755 0.2767 -0.1054 -0.4475
-0.7775 -1.0917 -1.3622 -1.6448 -1.9673 -2.2583
-2.5112 -2.7742 -2.9453 -3.1210 -3.2743 -3.3654
-3.4630 -3.5086 -3.5867 -3.6871 -3.8274 -3.9557
-4.1054 -4.3173 -4.4930 -4.6938 -4.8872 -5.1818
-5.5416 -5.9023 -6.2983 -6.6134 -6.9313 -7.1730
-7.2809 -7.3320 -7.2678 -7.1637 -6.9955 -6.8179
-6.6673 -6.5520 -6.4962 -6.3977 -6.3819 -6.3577
-6.3084 -6.2889 -6.2257 -6.1839 -6.1699 -6.1699
-6.1513 -6.1848 -6.2322 -6.2173 -6.1848 -6.1467
-6.0992 -6.0648 -6.0788 -6.1095 -6.1457 -6.1578
-6.1541 -6.1271 -6.0564 -5.9756 -5.8092 -5.5544
-5.2486 -4.9084 -4.5784 -4.2614 -3.9760 -3.7324
-3.5009 -3.2527 -2.9748 -2.6615 -2.3556 -2.0647
-1.8072 -1.6333 -1.5143 -1.5013 -1.5729 -1.6370
-1.6779 -1.6500 -1.6017 -1.5533 -1.4808 -1.4232
-1.3972 -1.3814 -1.3628 -1.3423 -1.2707 -1.1722
-1.0086 -0.8412 -0.6906 -0.5242 -0.4852 -0.4294
-0.4071 -0.4629 -0.4601 -0.5037 -0.4917 -0.4442
-0.4043 -0.3011 -0.2137 -0.1068 0.0485 0.2177
0.3738 0.5644 0.7773 0.9939 1.2830 1.5944
1.9105 2.2219 2.5510 2.8401 3.0688 3.2817
3.4146 3.5438 3.6126 3.6415 3.6675 3.6294
3.6099 3.5206 3.4630 3.4732 3.4704 3.5504
3.6945 3.8497 3.9306 4.0078 4.0756 4.0766
4.0682 4.0440 4.0589 4.0431 4.0478 4.1361
4.1389 4.1742 4.2356 4.2105 4.2467 4.3025
4.3285 4.3443 4.2951 4.1733 4.0190 3.8247
3.5867 3.4045 3.1628 2.9072 2.7622 2.5744
2.4517 2.4145 2.3420 2.3225 2.2742 2.1236
1.9618 1.7824 1.5686 1.4022 1.2832 1.2237
1.2154 1.2554 1.3632 1.4441 1.5417 1.6309
1.6542 1.6551 1.6068 1.4999 1.3604 1.1885
1.0416 0.9589 0.8715 0.8232 0.8176 0.8222
0.8669 0.9003 0.9654 1.1067 1.3438 1.6459
1.9685 2.3375 2.6833 2.9808 3.2272 3.4075
3.4940 3.5711 3.6529 3.7143 3.8305 3.9049
3.9662 3.9346 3.8547 3.8073 3.6530 3.6158
3.6242 3.5767 3.6864 3.8129 3.9347 4.1410
4.3353 4.5668 4.7788 4.9944 5.2222 5.3988
5.5717 5.6684 5.8190 5.9510 6.0709 6.2448
6.3684 6.4930 6.5497 6.5962 6.5962 6.5358
6.4140 6.2476 6.1323 5.9892 5.9092 5.8665
5.8479 5.8749 5.9167 6.0013 6.0654 6.0924
6.0952 6.0701 5.9781 5.8814 5.7466 5.5607
5.4092 5.1870 4.9778 4.8830 4.7148 4.5846
4.5047 4.3355 4.1933 4.0455 3.9451 3.8754
3.8029 3.8354 3.9107 3.9972 4.0957 4.1794
4.2324 4.2361 4.2045 4.1599 4.1004 4.0130
3.9265 3.8577 3.7620 3.7258 3.6942 3.6040
3.5510 3.4720 3.3846 3.3279 3.2898 3.2907
3.2526 3.2257 3.1978 3.0955 2.9663 2.8036
2.6521 2.4774 2.2868 2.0953 1.8815 1.6826
1.4576 1.2233 1.0244 0.8366 0.6005 0.3681
0.1664 -0.0195 -0.1450 -0.2212 -0.2817 -0.3198
-0.3402 -0.4136 -0.5373 -0.6832 -0.9119 -1.2159
-1.4762 -1.7439 -2.0172 -2.2477 -2.5154 -2.7265
-2.9087 -3.0983 -3.2693 -3.4580 -3.6291 -3.7778
-3.8912 -4.0009 -4.0818 -4.1376 -4.1664 -4.1905
-4.2296 -4.2872 -4.4248 -4.6023 -4.8319 -5.0467
-5.2419 -5.4371 -5.5626 -5.6147 -5.5738 -5.4650
-5.2679 -5.0532 -4.8951 -4.7445 -4.6237 -4.5818
-4.5865 -4.5939 -4.6385 -4.6887 -4.7110 -4.7482
-4.7780 -4.8040 -4.8644 -4.9508 -5.0531 -5.1526
-5.2195 -5.2632 -5.2715 -5.2176 -5.1182 -4.9220
-4.7184 -4.5864 -4.4265 -4.3047 -4.2536 -4.2071
-4.1207 -4.0175 -3.9236 -3.7971 -3.7070 -3.6335
-3.6159 -3.7200 -3.7980 -3.8594 -3.9338 -3.9263
-3.8296 -3.6837 -3.4978 -3.2616 -3.0153 -2.7773
-2.5226 -2.2883 -2.0522 -1.7780 -1.5623 -1.4108
-1.2555 -1.1412 -1.0696 -1.0157 -0.9794 -0.9181
-0.8558 -0.7870 -0.6996 -0.6066 -0.4681 -0.3370
-0.2097 -0.0619 0.0822 0.2440 0.4308 0.6391
0.8622 1.1020 1.2973 1.4376 1.5529 1.5901
1.5929 1.6124 1.6115 1.6096 1.6561 1.7426
1.8662 1.9759 2.0940 2.2260 2.3496 2.5049
2.6322 2.7549 2.8860 3.0087 3.1352 3.2272
3.3127 3.3555 3.3508 3.3034 3.1519 2.9595
2.7829 2.6583 2.5412 2.4464 2.4110 2.3525
2.3144 2.2884 2.2196 2.1071 1.9714 1.8059
1.6469 1.5131 1.3634 1.2277 1.0725 0.9275
0.7936 0.6504 0.4989 0.3455 0.2107 0.0378
-0.1667 -0.3758 -0.5887 -0.7718 -0.9326 -1.0600
-1.1130 -1.1688 -1.2255 -1.2831 -1.4179 -1.5322
-1.6001 -1.6698 -1.6707 -1.6177 -1.5824 -1.5406
-1.5006 -1.4513 -1.3983 -1.3676 -1.3574 -1.3388
-1.2421 -1.1473 -1.0813 -0.9679 -0.8424 -0.7271
-0.5849 -0.4538 -0.3041 -0.1461 -0.0429 0.0947
0.2732 0.4414 0.6264 0.7947 0.8709 0.9416
0.9676 0.9304 0.9788 1.0271 1.1127 1.2921
1.4901 1.7011 1.9289 2.1492 2.2961 2.3881
2.4039 2.3602 2.3481 2.3137 2.2998 2.3230
2.3983 2.5731 2.7023 2.8678 3.0324 3.1067
3.2322 3.3261 3.3308 3.3354 3.3438 3.3131
3.2499 3.1430 3.0147 2.8762 2.6866 2.4914
2.3129 2.1437 1.9857 1.8602 1.7384 1.5702
1.3908 1.2123 1.0505 0.8962 0.7140 0.5272
0.3171 0.1181 -0.0464 -0.2676 -0.5177 -0.6813
-0.8858 -1.0931 -1.1954 -1.3311 -1.4807 -1.6620
-1.8479 -2.0022 -2.1482 -2.2207 -2.2885 -2.3304
-2.3369 -2.3852 -2.3991 -2.3805 -2.4056 -2.4828
-2.6278 -2.7542 -2.8918 -3.1093 -3.2878 -3.4821
-3.6401 -3.7442 -3.8595 -3.8809 -3.8734 -3.8493
-3.7842 -3.7070 -3.6345 -3.5639 -3.4802 -3.4170
-3.3259 -3.2273 -3.1511 -3.0293 -2.8862 -2.7495
-2.6370 -2.5571 -2.5199 -2.4883 -2.4650 -2.4976
-2.5134 -2.5543 -2.6026 -2.6007 -2.6258 -2.6407
-2.6156 -2.6249 -2.6593 -2.6797 -2.6862 -2.6825
-2.7225 -2.7922 -2.8805 -3.0134 -3.1519 -3.2904
-3.4671 -3.6511 -3.7961 -3.9700 -4.1215 -4.2442
-4.3827 -4.4626 -4.5082 -4.5342 -4.4970 -4.3780
-4.2869 -4.2107 -4.0610 -3.8742 -3.7208 -3.5990
-3.4186 -3.2560 -3.0914 -2.9213 -2.8283 -2.7010
-2.6303 -2.6034 -2.5271 -2.5215 -2.4769 -2.4509
-2.4500 -2.3719 -2.3059 -2.2231 -2.1357 -2.0214
-1.9117 -1.8252 -1.7667 -1.7378 -1.6756 -1.6216
-1.5919 -1.5751 -1.5482 -1.5621 -1.6532 -1.6988
-1.7211 -1.8354 -1.8791 -1.8484 -1.7889 -1.6653
-1.5797 -1.5082 -1.4440 -1.4003 -1.3845 -1.3873
-1.4189 -1.4877 -1.5360 -1.5509 -1.5555 -1.5574
-1.5583 -1.5165 -1.4542 -1.4142 -1.3166 -1.2664
-1.2404 -1.1883 -1.1855 -1.1883 -1.2236 -1.2580
-1.2450 -1.1846 -1.1390 -1.0600 -0.9577 -0.9140
-0.8201 -0.7290 -0.6491 -0.5533 -0.4845 -0.3609
-0.2149 -0.0420 0.1430 0.2564 0.4228 0.5669
0.6254 0.7035 0.7333 0.7370 0.7714 0.8421
0.9452 1.0903 1.3171 1.5337 1.7549 2.0552
2.3369 2.5702 2.7943 3.0155 3.2154 3.3511
3.5064 3.6951 3.8689 4.0530 4.2268 4.4220
4.6015 4.7995 5.0440 5.2819 5.5227 5.7402
5.9968 6.1781 6.2348 6.2655 6.2116 6.1409
6.0777 6.0145 5.9690 5.9597 5.9615 5.9467
5.9392 5.9123 5.9318 5.9681 6.0266 6.1345
6.2628 6.4292 6.5946 6.7471 6.8261 6.8698
6.8624 6.7610 6.6625 6.5593 6.4580 6.3939
6.3372 6.2609 6.1587 6.0323 5.9012 5.7450
5.6093 5.4996 5.4076 5.3388 5.2533 5.2319
5.2003 5.1343 5.0906 5.0358 5.0060 4.9568
4.8731 4.7504 4.5822 4.3990 4.1601 3.9045
3.7279 3.5661 3.4192 3.3467 3.2473 3.1618
3.1348 3.1069 3.0484 2.9619 2.8913 2.8132
2.7239 2.6375 2.5966 2.5873 2.5585 2.5538
2.5455 2.5167 2.4758 2.4228 2.3800 2.3614
2.3707 2.3996 2.4386 2.4377 2.3866 2.3224
2.2025 2.0259 1.9013 1.7767 1.6643 1.5732
1.4309 1.3352 1.2144 1.0210 0.8546 0.7022
0.5153 0.3471 0.1844 -0.0108 -0.1373 -0.2841
-0.4663 -0.6588 -0.8874 -1.0947 -1.3299 -1.5670
-1.7724 -1.9592 -2.0810 -2.1507 -2.2177 -2.2688
-2.3097 -2.3376 -2.3394 -2.3078 -2.2827 -2.2334
-2.1340 -2.0615 -1.9415 -1.8309 -1.7333 -1.6552
-1.6608 -1.6208 -1.6412 -1.6952 -1.6598 -1.6282
-1.5548 -1.4590 -1.3949 -1.2917 -1.2433 -1.2889
-1.3447 -1.4190 -1.4860 -1.5836 -1.6338 -1.6356
-1.6533 -1.5808 -1.5454 -1.5213 -1.4878 -1.5073
-1.4748 -1.5017 -1.5426 -1.5612 -1.5724 -1.5324
-1.5398 -1.5686 -1.6253 -1.6923 -1.7954 -1.9144
-2.0055 -2.1143 -2.1961 -2.3058 -2.3978 -2.5149
-2.6339 -2.6990 -2.8328 -2.9379 -3.0792 -3.2642
-3.4343 -3.6313 -3.7457 -3.8684 -3.9613 -3.9688
-4.0487 -4.1008 -4.2012 -4.3415 -4.4317 -4.5990
-4.7524 -4.8946 -5.0471 -5.2172 -5.4161 -5.5928
-5.8028 -6.0185 -6.1830 -6.2964 -6.3829 -6.4368
-6.4563 -6.4507 -6.4461 -6.4266 -6.3689 -6.3150
-6.2193 -6.1133 -6.0054 -5.8474 -5.7219 -5.6252
-5.5481 -5.5053 -5.4886 -5.4951 -5.4774 -5.4541
-5.4123 -5.2887 -5.1297 -4.9958 -4.8768 -4.7430
-4.6072 -4.4827 -4.3209 -4.1582 -3.9723 -3.7539
-3.5531 -3.3253 -3.0659 -2.7843 -2.5119 -2.2321
-1.9866 -1.7329 -1.4707 -1.2857 -1.1314 -1.0068
-0.8823 -0.7670 -0.6573 -0.5671 -0.5002 -0.4360
-0.3682 -0.2705 -0.2073 -0.1357 0.0056 0.1617
0.3309 0.5234 0.7056 0.8701 1.0309 1.1611
1.2745 1.4316 1.6120 1.7681 1.9355 2.1084
2.2543 2.4077 2.5704 2.6355 2.6197 2.6624
2.6625 2.6253 2.5760 2.5230 2.5862 2.6392
2.6876 2.7341 2.7666 2.8307 2.8335 2.8345
2.7926 2.7536 2.7889 2.7954 2.8503 2.8782
2.8996 2.9535 2.9330 2.9145 2.8717 2.8262
2.7602 2.6951 2.6839 2.6337 2.6161 2.5826
2.5166 2.4692 2.4088 2.3614 2.3279 2.3000
2.2777 2.2703 2.2424 2.2266 2.2099 2.1653
2.1309 2.1002 2.1021 2.0974 2.1393 2.2741
2.3838 2.4600 2.6180 2.7826 2.8523 2.9880
3.1451 3.2651 3.4212 3.5663 3.6862 3.8145
3.9706 4.1250 4.2458 4.3760 4.5080 4.5972
4.7450 4.8501 4.9003 5.0109 5.0174 4.9709
4.9644 4.9431 4.9208 4.9198 4.9542 4.9970
5.0398 5.1327 5.1885 5.2062 5.2508 5.2471
5.2508 5.2508 5.2954 5.3642 5.4200 5.5120
5.5687 5.6050 5.6338 5.6571 5.6004 5.5660
5.5502 5.5232 5.5790 5.5483 5.5046 5.4823
5.3940 5.2936 5.1598 5.0110 4.9320 4.8772
4.8047 4.7591 4.6634 4.5676 4.4803 4.3511
4.2572 4.1661 4.0508 3.9448 3.8314 3.6911
3.5237 3.3136 3.0822 2.8386 2.5728 2.3525
2.0838 1.7612 1.4851 1.1877 0.8642 0.5397
0.2032 -0.1454 -0.4614 -0.7719 -1.0592 -1.3120
-1.5463 -1.7312 -1.9190 -2.0956 -2.2723 -2.4851
-2.7008 -2.9388 -3.1935 -3.4445 -3.7215 -3.9716
-4.2114 -4.4875 -4.7320 -4.9774 -5.2395 -5.4831
-5.7350 -5.9953 -6.2137 -6.3876 -6.5809 -6.7826
-6.9462 -7.1303 -7.3655 -7.5979 -7.8526 -8.1259
-8.3694 -8.6093 -8.7589 -8.8389 -8.9374 -8.9997
-9.0406 -9.0666 -9.0685 -9.0220 -8.9365 -8.8556
-8.7654 -8.6975 -8.6687 -8.6975 -8.7524 -8.8453
-8.9662 -9.0266 -9.1047 -9.1577 -9.1744 -9.1716
-9.0991 -9.0572 -8.9810 -8.8462 -8.7384 -8.6268
-8.5060 -8.3768 -8.2289 -8.0467 -7.8125 -7.5531
-7.2826 -7.0269 -6.8271 -6.6300 -6.4524 -6.2990
-6.0992 -5.8789 -5.6623 -5.4289 -5.1649 -4.9279
-4.6899 -4.4240 -4.1293 -3.8504 -3.6264 -3.3122
-2.9534 -2.6373 -2.3240 -2.0386 -1.7188 -1.4111
-1.1378 -0.8440 -0.5782 -0.3328 -0.1031 0.1255
0.3552 0.5913 0.8404 1.0896 1.3071 1.5311
1.8184 2.0712 2.2665 2.4561 2.6402 2.7991
2.9414 3.0985 3.2221 3.3430 3.4462 3.5215
3.6200 3.6814 3.7260 3.7186 3.7139 3.6972
3.6172 3.5717 3.5187 3.4880 3.4592 3.4471
3.4518 3.4639 3.5457 3.6145 3.6851 3.6954
3.6666 3.6554 3.6145 3.5615 3.4751 3.4342
3.3719 3.2241 3.0837 2.9461 2.8169 2.6738
2.5343 2.4525 2.4349 2.4321 2.4358 2.4814
2.4795 2.4293 2.3587 2.2639 2.1690 2.0501
1.9218 1.7638 1.5834 1.4124 1.2627 1.1205
0.9866 0.9457 0.9141 0.9058 0.9857 1.0564
1.1447 1.2386 1.3250 1.4310 1.5351 1.6560
1.7815 1.8837 1.9711 2.0204 2.0223 2.0632
2.0743 2.0530 2.0808 2.0678 2.0520 2.0344
1.9647 1.9182 1.8726 1.8494 1.8485 1.8122
1.8104 1.8420 1.8847 1.9331 1.9675 2.0121
2.0893 2.1562 2.1757 2.2148 2.2724 2.2910
2.2882 2.2734 2.2278 2.1553 2.0772 2.0112
1.9387 1.8885 1.8923 1.9229 1.9406 1.9350
1.9657 1.9927 2.0206 2.0773 2.0968 2.1405
2.2288 2.2697 2.3255 2.4092 2.4631 2.5059
2.5059 2.5551 2.6025 2.6072 2.6806 2.7429
2.7922 2.8378 2.8814 2.9121 2.9326 2.9568
2.9298 2.9410 2.9754 2.9465 2.8861 2.8183
2.7411 2.6686 2.5812 2.5031 2.4827 2.4808
2.5487 2.6547 2.7402 2.8750 3.0024 3.1539
3.2999 3.3863 3.4904 3.5518 3.6159 3.6950
3.7768 3.8669 3.9246 4.0250 4.1114 4.1514
4.2165 4.2909 4.3141 4.3095 4.3271 4.2807
4.2147 4.1245 3.9758 3.8317 3.6392 3.4515
3.2088 2.9365 2.6920 2.4066 2.1603 1.8898
1.6471 1.4835 1.2967 1.1526 1.0197 0.8979
0.7826 0.6460 0.5158 0.3262 0.1533 -0.0150
-0.2297 -0.3821 -0.5597 -0.7763 -0.9641 -1.1676
-1.4075 -1.6473 -1.8416 -2.0638 -2.2422 -2.3733
-2.5118 -2.5936 -2.6949 -2.7991 -2.8790 -2.9143
-2.9757 -3.0510 -3.0751 -3.2071 -3.2778 -3.3085
-3.4163 -3.4860 -3.5548 -3.5957 -3.6682 -3.7342
-3.7760 -3.8532 -3.9080 -3.9666 -4.0316 -4.0837
-4.0883 -4.0846 -4.0762 -4.0577 -4.0576 -4.0707
-4.1060 -4.1190 -4.1487 -4.1599 -4.1497 -4.1459
-4.0688 -4.0046 -3.9386 -3.8364 -3.7769 -3.6978
-3.5937 -3.5128 -3.4106 -3.3027 -3.1837 -2.9895
-2.7980 -2.6241 -2.4298 -2.2588 -2.0580 -1.8488
-1.6731 -1.4760 -1.3226 -1.2055 -1.0995 -1.0465
-0.9591 -0.9294 -0.9471 -0.9136 -0.8894 -0.8160
-0.7574 -0.7063 -0.6198 -0.5055 -0.3753 -0.2507
-0.0527 0.0997 0.2754 0.4920 0.6361 0.8416
0.9903 1.1288 1.3017 1.3984 1.5592 1.6968
1.8056 1.9181 1.9674 2.0194 1.9999 1.9385
1.8809 1.7619 1.6392 1.5035 1.3473 1.1791
1.0276 0.9197 0.7654 0.6223 0.4782 0.3648
0.3211 0.2281 0.2002 0.2170 0.2002 0.2207
0.2300 0.2031 0.2179 0.2235 0.2198 0.2970
0.3620 0.4429 0.5796 0.6558 0.6893 0.7097
0.6670 0.6400 0.6447 0.6307 0.6261 0.6354
0.6772 0.6837 0.7042 0.7581 0.7256 0.7061
0.7488 0.7990 0.8650 0.9468 1.0500 1.1309
1.2155 1.2750 1.3001 1.3336 1.2852 1.2518
1.2360 1.1811 1.1319 1.0045 0.9004 0.8102
0.6829 0.5918 0.5239 0.4775 0.4291 0.4161
0.4087 0.4421 0.5277 0.5379 0.5639 0.5760
0.5277 0.5277 0.4608 0.3185 0.1912 0.0620
-0.0644 -0.2039 -0.3563 -0.4549 -0.5088 -0.6668
-0.8583 -0.9754 -1.0321 -1.1000 -1.2283 -1.2645
-1.2682 -1.2952 -1.2468 -1.1920 -1.1520 -1.1176
-1.0981 -1.1027 -1.1092 -1.0999 -1.1288 -1.1631
-1.1994 -1.2440 -1.3044 -1.3593 -1.4383 -1.5433
-1.6586 -1.7962 -1.8808 -1.9663 -1.9895 -2.0109
-2.0462 -2.0053 -1.9533 -1.8696 -1.8147 -1.7311
-1.6660 -1.6372 -1.5814 -1.5488 -1.4745 -1.4280
-1.4020 -1.2811 -1.1881 -1.1426 -1.0357 -0.9455
-0.8981 -0.8767 -0.8972 -0.9455 -0.9882 -1.0208
-1.0663 -1.1063 -1.1202 -1.0468 -0.9231 -0.7800
-0.6247 -0.5132 -0.3589 -0.2194 -0.1543 -0.0632
-0.0177 0.0604 0.1831 0.2733 0.3858 0.4332
0.4555 0.4843 0.5243 0.5773 0.5773 0.6489
0.7428 0.8450 0.9975 1.0802 1.1797 1.2336
1.1825 1.1992 1.2076 1.1862 1.1928 1.1546
1.1704 1.2086 1.1983 1.2067 1.2467 1.3080
1.3722 1.4428 1.4996 1.5693 1.6279 1.6706
1.7059 1.6613 1.6539 1.7199 1.7264 1.6679
1.6130 1.6000 1.6177 1.6493 1.6688 1.6279
1.6056 1.6419 1.6409 1.6484 1.5852 1.4652
1.4383 1.4253 1.4792 1.5610 1.5945 1.5889
1.5136 1.4327 1.3509 1.2459 1.1511 1.0711
1.0730 1.1437 1.1000 1.0377 1.0117 0.9754
0.9866 1.0312 1.0981 1.1232 1.1074 1.0349
0.9132 0.7812 0.6659 0.5636 0.4512 0.3219
0.1370 -0.0313 -0.2070 -0.4245 -0.6030 -0.7313
-0.8391 -0.8837 -0.8911 -0.9237 -0.9990 -1.1198
-1.2202 -1.3280 -1.3913 -1.4638 -1.5576 -1.5892
-1.6525 -1.6757 -1.7194 -1.8142 -1.8839 -1.9443
-1.9239 -1.8179 -1.6664 -1.5046 -1.4061 -1.3178
-1.2174 -1.1662 -1.0826 -0.9831 -0.7953 -0.5350
-0.3165 -0.1474 -0.0906 -0.0423 0.0209 0.1650
0.3305 0.4504 0.5592 0.5824 0.6363 0.6828
0.8139 1.0537 1.3419 1.7138 1.9490 2.1237
2.2892 2.3822 2.4677 2.6071 2.8405 3.0831
3.3518 3.5777 3.7153 3.7878 3.7961 3.8157
3.7822 3.7627 3.8259 3.9514 4.1522 4.3400
4.5417 4.7090 4.7704 4.7936 4.7788 4.7918
4.8225 4.8922 5.0651 5.2129 5.3468 5.4463
5.4667 5.4769 5.4240 5.3394 5.2315 5.0744
5.0289 4.9964 4.9118 4.8560 4.7677 4.7472
4.7287 4.6134 4.4805 4.3354 4.2462 4.2035
4.1356 4.0333 3.9376 3.8781 3.7684 3.6039
3.3882 3.1688 2.9941 2.7831 2.5534 2.3127
2.0570 1.8191 1.5606 1.2325 0.8885 0.6227
0.4265 0.2332 0.0361 -0.1730 -0.3850 -0.5737
-0.8098 -1.0664 -1.3332 -1.5674 -1.7180 -1.8537
-1.9774 -2.1363 -2.2981 -2.4422 -2.5770 -2.7080
-2.8819 -3.0241 -3.1793 -3.3197 -3.3913 -3.5130
-3.6190 -3.6636 -3.7361 -3.7938 -3.8319 -3.9378
-4.0354 -4.1014 -4.1888 -4.2186 -4.2018 -4.1962
-4.1767 -4.1925 -4.2120 -4.1925 -4.1841 -4.1879
-4.2167 -4.2706 -4.3124 -4.3189 -4.2957 -4.2799
-4.3022 -4.3449 -4.3886 -4.3914 -4.3533 -4.3700
-4.3719 -4.2882 -4.2445 -4.1664 -4.0270 -3.9303
-3.7825 -3.6142 -3.4413 -3.2340 -3.0592 -2.8752
-2.7320 -2.6130 -2.4503 -2.3453 -2.2523 -2.1835
-2.1621 -2.0933 -2.1073 -2.1881 -2.2467 -2.3350
-2.4261 -2.4549 -2.4624 -2.4512 -2.3796 -2.3694
-2.3127 -2.2402 -2.1918 -2.0356 -1.8906 -1.7261
-1.5745 -1.4239 -1.3077 -1.2622 -1.1813 -1.1869
-1.2129 -1.2724 -1.3914 -1.4983 -1.6089 -1.6861
-1.8115 -1.9147 -1.9417 -1.9891 -2.0477 -2.0737
-2.0811 -2.0904 -2.0430 -1.9965 -1.9779 -1.9407
-1.9017 -1.8719 -1.8617 -1.8459 -1.8366 -1.8264
-1.8022 -1.8022 -1.8440 -1.8728 -1.8979 -1.9806
-2.0336 -2.0606 -2.0727 -2.0438 -2.0792 -2.1266
-2.1303 -2.1154 -2.0513 -1.9992 -1.9100 -1.7361
-1.5920 -1.4470 -1.3187 -1.2388 -1.1337 -1.0584
-0.9924 -0.8966 -0.8232 -0.7349 -0.6484 -0.5880
-0.4988 -0.3826 -0.2756 -0.1985 -0.1641 -0.1241
-0.0683 -0.0479 0.0163 0.1278 0.2096 0.3528
0.5053 0.6075 0.7265 0.8399 0.8883 0.9087
0.9645 1.0380 1.1393 1.2183 1.3122 1.3698
1.3838 1.4507 1.4554 1.4582 1.4916 1.5270
1.6292 1.7203 1.7947 1.8886 1.9936 2.0215
1.9704 1.9611 1.9156 1.8375 1.7557 1.6748
1.6051 1.5038 1.3913 1.2639 1.1849 1.0864
1.0204 1.0176 0.9702 1.0251 1.0790 1.1320
1.2184 1.2500 1.3365 1.4062 1.4453 1.5169
1.5671 1.5996 1.6749 1.7270 1.7363 1.7279
1.7130 1.7186 1.7010 1.7233 1.7521 1.7865
1.8488 1.8915 1.9622 2.0607 2.1769 2.2411
2.3164 2.3424 2.3238 2.3685 2.3452 2.3378
2.3173 2.3229 2.3601 2.3369 2.3360 2.2662
2.2737 2.2653 2.1612 2.1361 2.0487 1.9195
1.7726 1.6062 1.4408 1.3209 1.2233 1.1052
1.0123 0.8254 0.6311 0.4564 0.2221 0.0139
-0.1916 -0.3682 -0.5402 -0.7344 -0.8358 -0.9696
-1.1462 -1.2615 -1.3684 -1.4697 -1.5711 -1.6993
-1.8425 -1.9187 -1.9903 -2.0907 -2.1604 -2.2431
-2.3166 -2.3835 -2.5090 -2.6243 -2.7014 -2.7600
-2.7488 -2.7944 -2.8371 -2.8009 -2.7897 -2.8101
-2.8613 -2.8826 -2.9291 -2.9849 -3.0295 -3.1234
-3.1346 -3.1290 -3.1559 -3.1448 -3.1429 -3.1513
-3.1922 -3.2275 -3.2702 -3.3000 -3.2637 -3.2089
-3.0611 -2.8816 -2.7050 -2.4838 -2.3034 -2.1510
-2.0217 -1.9269 -1.8405 -1.7521 -1.6462 -1.5523
-1.4454 -1.3450 -1.2678 -1.1981 -1.1628 -1.0558
-0.9201 -0.7928 -0.6152 -0.4283 -0.1969 0.0420
0.2810 0.4567 0.5775 0.7095 0.7923 0.8908
0.9364 0.9791 1.0516 1.0795 1.1558 1.2255
1.2813 1.3398 1.3770 1.4384 1.4598 1.4728
1.5146 1.5202 1.5676 1.6727 1.7433 1.8558
1.9915 2.0743 2.2081 2.3113 2.3281 2.3838
2.4145 2.4164 2.4526 2.4396 2.3950 2.3541
2.3086 2.2723 2.2054 2.1171 2.0381 1.9535
1.8856 1.8559 1.8550 1.8810 1.8856 1.8689
1.9080 1.9814 2.0465 2.0911 2.1525 2.2640
2.3086 2.3412 2.3867 2.3347 2.2975 2.2408
2.1320 2.0670 2.0316 2.0010 1.9554 1.8987
1.8318 1.7584 1.7156 1.7017 1.6859 1.7240
1.7677 1.7788 1.8300 1.8356 1.7807 1.7296
1.6348 1.4879 1.3578 1.2741 1.1876 1.0956
1.0250 0.9618 0.9237 0.9060 0.8911 0.8976
0.9488 0.9729 0.9646 0.9943 1.0073 1.0259
1.0808 1.1403 1.1682 1.1570 1.1756 1.1468
1.0808 1.0130 0.9200 0.8921 0.8587 0.7936
0.7638 0.7285 0.6820 0.6346 0.5686 0.5435
0.5538 0.5361 0.5538 0.5993 0.6151 0.6774
0.7341 0.7434 0.7983 0.8383 0.9052 0.9721
1.0149 1.0930 1.0967 1.0911 1.1163 1.1209
1.1349 1.1395 1.1451 1.1665 1.2009 1.2585
1.3134 1.3766 1.4193 1.4342 1.4649 1.4993
1.5170 1.4993 1.4984 1.5411 1.5718 1.5997
1.6313 1.6499 1.6220 1.5486 1.4649 1.3952
1.3543 1.2911 1.2679 1.2567 1.2214 1.2065
1.1610 1.0913 1.0178 0.9714 0.8673 0.7678
0.7064 0.6116 0.5521 0.4834 0.4136 0.3867
0.3988 0.4192 0.3895 0.2993 0.2157 0.1357
0.0353 -0.0651 -0.1776 -0.2566 -0.3337 -0.3830
-0.4044 -0.4462 -0.5168 -0.6377 -0.7418 -0.8320
-0.9212 -1.0290 -1.1071 -1.0839 -1.0820 -1.1015
-1.1238 -1.1777 -1.2103 -1.2679 -1.3246 -1.3646
-1.3581 -1.2874 -1.2168 -1.0894 -0.9890 -0.9193
-0.8412 -0.8040 -0.8031 -0.8653 -0.9239 -1.0206
-1.1210 -1.1358 -1.1674 -1.1832 -1.1851 -1.2065
-1.1832 -1.1479 -1.1181 -1.0800 -1.0419 -1.0298
-0.9982 -0.9527 -0.9183 -0.8439 -0.7732 -0.7007
-0.6124 -0.5427 -0.5148 -0.4544 -0.3781 -0.3121
-0.2099 -0.1569 -0.0509 0.0811 0.1750 0.3014
0.4121 0.5524 0.6752 0.7486 0.8369 0.9011
0.9568 1.0173 1.0796 1.1837 1.2869 1.3994
1.5202 1.6373 1.7442 1.7684 1.7740 1.7963
1.8289 1.8633 1.8865 1.9488 2.0306 2.0901
2.1607 2.2333 2.2584 2.2509 2.2807 2.3523
2.3904 2.4601 2.5401 2.5875 2.6395 2.6832
2.6925 2.6405 2.6042 2.5596 2.4992 2.4592
2.3793 2.3179 2.2649 2.1831 2.1562 2.1348
2.1144 2.1116 2.0409 2.0010 1.9610 1.8801
1.8113 1.7156 1.6700 1.6319 1.5427 1.4497
1.3614 1.2545 1.1262 1.0361 0.9031 0.7665
0.7014 0.5750 0.4077 0.2831 0.1855 0.1548
0.1102 0.0405 0.0145 -0.0450 -0.0645 -0.0905
-0.1677 -0.2021 -0.2486 -0.2588 -0.2848 -0.3545
-0.3852 -0.4902 -0.5860 -0.6529 -0.8017 -0.8974
-0.9866 -1.0982 -1.1335 -1.2125 -1.2646 -1.2757
-1.3547 -1.4142 -1.4523 -1.4904 -1.5341 -1.5583
-1.6206 -1.6726 -1.6736 -1.6680 -1.6261 -1.6364
-1.6689 -1.7200 -1.7711 -1.7851 -1.8288 -1.8585
-1.8632 -1.8817 -1.9096 -1.9450 -1.9710 -2.0286
-2.1244 -2.2071 -2.3019 -2.3279 -2.3595 -2.4274
-2.4516 -2.4571 -2.4367 -2.4608 -2.4264 -2.4339
-2.5147 -2.5175 -2.5175 -2.5482 -2.5910 -2.6170
-2.6886 -2.7211 -2.7127 -2.7155 -2.6988 -2.7071
-2.7239 -2.6978 -2.6588 -2.6820 -2.7192 -2.7554
-2.7787 -2.8112 -2.8549 -2.9283 -2.9795 -3.0166
-3.1207 -3.1756 -3.2369 -3.2936 -3.3345 -3.4089
-3.4703 -3.5167 -3.5521 -3.5995 -3.6106 -3.6069
-3.6153 -3.6245 -3.6180 -3.6059 -3.6403 -3.6896
-3.7630 -3.8104 -3.8420 -3.8885 -3.8941 -3.9043
-3.9145 -3.9331 -3.9684 -4.0047 -4.1032 -4.1776
-4.2092 -4.2640 -4.2668 -4.2668 -4.2705 -4.2547
-4.2594 -4.2343 -4.2268 -4.2120 -4.1748 -4.1339
-4.0381 -3.9331 -3.8354 -3.7397 -3.6393 -3.5528
-3.4775 -3.4180 -3.3808 -3.2925 -3.1977 -3.0871
-2.9523 -2.8286 -2.6873 -2.5544 -2.4224 -2.2755
-2.1035 -1.9222 -1.7029 -1.4695 -1.2315 -1.0047
-0.8132 -0.5799 -0.3856 -0.2071 0.0058 0.2084
0.3618 0.4901 0.6472 0.7746 0.8889 1.0200
1.1650 1.3073 1.4542 1.6457 1.8269 1.9496
2.0500 2.1430 2.1932 2.2323 2.2667 2.3364
2.4489 2.5418 2.6534 2.7659 2.8988 3.0169
3.1368 3.2865 3.3943 3.5096 3.6611 3.7885
3.8638 3.9502 3.9828 3.9670 3.9791 3.9512
3.9242 3.9056 3.8750 3.8889 3.8954 3.9326
3.9689 3.9447 3.9494 3.9345 3.9308 3.9112
3.8741 3.8434 3.7820 3.7235 3.6491 3.5859
3.5078 3.3833 3.2383 3.1016 2.9724 2.8153
2.6610 2.5457 2.4397 2.3775 2.3858 2.4016
2.4212 2.4063 2.3422 2.2827 2.1925 2.0354
1.8802 1.7556 1.6524 1.5520 1.4870 1.4461
1.3317 1.1923 1.0445 0.8697 0.7070 0.5574
0.4495 0.3947 0.3808 0.3817 0.4012 0.4542
0.4542 0.4068 0.3826 0.3455 0.2599 0.1809
0.1419 0.0833 0.0582 0.0396 -0.0245 -0.0524
-0.0961 -0.1899 -0.2671 -0.3536 -0.4679 -0.5711
-0.6213 -0.6519 -0.6761 -0.6426 -0.6389 -0.6380
-0.6008 -0.6426 -0.7095 -0.7421 -0.7597 -0.7216
-0.6723 -0.6500 -0.5896 -0.5059 -0.4241 -0.3423
-0.2586 -0.2112 -0.1852 -0.1108 -0.0439 0.0110
0.0853 0.1764 0.2964 0.3893 0.4823 0.6050
0.6682 0.6803 0.7398 0.8272 0.9034 1.0299
1.1312 1.2176 1.3143 1.3562 1.3850 1.3720
1.2985 1.2400 1.1972 1.1238 1.0671 0.9899
0.9202 0.8691 0.7743 0.6943 0.5670 0.4192
0.3002 0.2017 0.1626 0.1422 0.0994 0.0892
0.0780 -0.0028 -0.1209 -0.2464 -0.3300 -0.3756
-0.4053 -0.4490 -0.4760 -0.4407 -0.4834 -0.5922
-0.6600 -0.7558 -0.8292 -0.8376 -0.8050 -0.7288
-0.6591 -0.5986 -0.5708 -0.5828 -0.5838 -0.5940
-0.6395 -0.6739 -0.7139 -0.7250 -0.6767 -0.6423
-0.5986 -0.5688 -0.5503 -0.5382 -0.4954 -0.4591
-0.4787 -0.4424 -0.3569 -0.2332 -0.1254 -0.0045
0.1117 0.1498 0.1879 0.2307 0.2902 0.3859
0.5077 0.6527 0.7977 0.9149 1.0283 1.1166
1.1835 1.2421 1.2747 1.3639 1.4420 1.5396
1.6707 1.7599 1.8482 1.9012 1.9747 2.0202
2.0528 2.1392 2.2155 2.2936 2.3726 2.4795
2.5864 2.6608 2.7258 2.8374 2.9248 2.9164
2.9452 2.9917 3.0698 3.2093 3.3143 3.4017
3.4463 3.4593 3.4631 3.4036 3.3404 3.3339
3.3162 3.2632 3.3432 3.4993 3.6193 3.7996
3.9149 3.9567 4.0441 4.0887 4.0962 4.1064
4.1064 4.0702 4.0479 4.0869 4.1334 4.1687
4.1855 4.1780 4.1037 4.0321 3.9865 3.8517
3.7755 3.7160 3.6054 3.6565 3.7458 3.7672
3.7458 3.6584 3.5859 3.4502 3.3080 3.2206
3.1397 3.1425 3.1379 3.0951 3.0217 2.8683
2.7391 2.6071 2.4658 2.3189 2.1497 2.0503
1.9824 1.8987 1.8523 1.7872 1.6719 1.5753
1.4144 1.2592 1.1467 0.9720 0.8465 0.7489
0.5787 0.4198 0.3055 0.1558 0.0229 -0.0794
-0.1770 -0.1937 -0.1956 -0.2179 -0.2718 -0.3796
-0.5256 -0.6706 -0.7552 -0.8788 -0.9829 -1.0303
-1.1279 -1.2451 -1.3241 -1.4115 -1.5565 -1.6141
-1.6680 -1.7563 -1.7638 -1.8260 -1.9227 -1.9859
-2.0640 -2.0872 -2.0686 -2.0435 -2.0342 -2.0631
-2.0742 -2.1197 -2.1448 -2.1988 -2.2778 -2.2843
-2.3503 -2.3707 -2.3261 -2.3252 -2.3884 -2.4869
-2.5148 -2.5473 -2.5743 -2.5650 -2.5138 -2.3865
-2.3409 -2.3177 -2.2889 -2.3242 -2.3363 -2.3521
-2.3084 -2.2228 -2.1866 -2.1466 -2.1150 -2.0546
-2.0574 -2.1215 -2.1168 -2.1531 -2.1419 -2.0871
-2.0350 -1.9049 -1.8007 -1.6790 -1.5377 -1.4837
-1.4651 -1.4382 -1.4177 -1.3712 -1.2904 -1.1937
-1.0635 -0.8999 -0.7289 -0.6155 -0.5113 -0.4081
-0.2957 -0.1255 0.0464 0.2547 0.4620 0.6953
0.9352 1.1378 1.3163 1.3953 1.5004 1.6138
1.7263 1.8443 1.8918 1.9866 2.0693 2.0981
2.1214 2.0889 2.0498 2.0656 2.0786 2.1335
2.2432 2.3166 2.3966 2.4579 2.4961 2.5026
2.4961 2.5016 2.4310 2.3855 2.3948 2.3752
2.3204 2.2367 2.1280 1.9755 1.8510 1.7450
1.6567 1.6167 1.5461 1.5052 1.4782 1.3899
1.3025 1.2086 1.0655 0.8693 0.7076 0.5551
0.3850 0.2391 0.0801 -0.0593 -0.2294 -0.4014
-0.5864 -0.8467 -1.0846 -1.2761 -1.4202 -1.5569
-1.7344 -1.9743 -2.1909 -2.3210 -2.4753 -2.5971
-2.6696 -2.7598 -2.8034 -2.8527 -3.0052 -3.2032
-3.4356 -3.7256 -4.0035 -4.2053 -4.3856 -4.5353
-4.6161 -4.7453 -4.9155 -5.0753 -5.2278 -5.3895
-5.5727 -5.7251 -5.8804 -6.0356 -6.1286 -6.1992
-6.2429 -6.1918 -6.1295 -6.1220 -6.1006 -6.1099
-6.1583 -6.2484 -6.3386 -6.3721 -6.4585 -6.5031
-6.4520 -6.3860 -6.3228 -6.2428 -6.2047 -6.2047
-6.1387 -6.0653 -5.9788 -5.8533 -5.6599 -5.4164
-5.1961 -5.0073 -4.8865 -4.8112 -4.7517 -4.6913
-4.6299 -4.5146 -4.3324 -4.1512 -3.9253 -3.7049
-3.5264 -3.3824 -3.2987 -3.2029 -3.1072 -2.9687
-2.8106 -2.6684 -2.4853 -2.3365 -2.1543 -1.9637
-1.8373 -1.6607 -1.4822 -1.3251 -1.1503 -0.9086
-0.6967 -0.5665 -0.3899 -0.2476 -0.1640 -0.1305
-0.1193 -0.1045 -0.0812 0.0517 0.2655 0.4663
0.6411 0.8354 0.9869 1.0975 1.2370 1.3495
1.5001 1.6609 1.8245 2.0169 2.2010 2.3702
2.5069 2.6472 2.7337 2.8406 2.9642 3.0386
3.1232 3.2087 3.3417 3.4839 3.6150 3.7042
3.7582 3.8074 3.8567 3.9525 4.0482 4.1839
4.3039 4.4136 4.5437 4.6302 4.7296 4.7826
4.8049 4.7826 4.7399 4.7269 4.7473 4.8226
4.8598 4.9137 4.9472 5.0048 5.0299 4.9816
4.9974 4.9574 4.8952 4.8459 4.7855 4.6925
4.5977 4.5075 4.3532 4.2361 4.1255 4.0214
3.9693 3.9377 3.8959 3.8317 3.7462 3.6059
3.4636 3.2982 3.1234 3.0165 2.9245 2.8259
2.7265 2.5582 2.3277 2.1074 1.8926 1.6918
1.5059 1.3637 1.2689 1.1713 1.0848 1.0049
0.9036 0.7344 0.5977 0.4499 0.2073 0.0065
-0.2054 -0.4490 -0.7158 -0.9835 -1.2354 -1.4976
-1.7523 -2.0311 -2.2766 -2.5424 -2.8250 -3.0425
-3.2443 -3.4004 -3.5408 -3.6235 -3.6421 -3.6895
-3.6700 -3.6375 -3.6960 -3.7964 -3.9284 -4.0548
-4.1850 -4.3225 -4.4043 -4.4815 -4.5494 -4.5828
-4.6414 -4.7102 -4.7027 -4.7092 -4.7343 -4.6562
-4.6125 -4.5623 -4.4768 -4.3931 -4.2909 -4.2342
-4.1830 -4.1840 -4.2379 -4.3067 -4.3420 -4.3206
-4.2862 -4.2221 -4.1189 -3.9869 -3.7963 -3.6141
-3.4988 -3.3556 -3.2208 -3.1325 -3.0489 -2.9215
-2.8378 -2.7932 -2.6621 -2.5831 -2.5227 -2.4316
-2.4213 -2.3646 -2.2438 -2.1657 -2.0021 -1.8338
-1.7046 -1.5540 -1.4685 -1.3848 -1.3188 -1.2537
-1.2110 -1.1468 -1.0148 -0.8800 -0.7099 -0.5769
-0.4579 -0.3427 -0.2637 -0.1781 -0.0805 -0.0405
-0.0247 0.0022 0.0180 0.0906 0.2030 0.3109
0.4187 0.5424 0.6614 0.7971 0.9114 1.0137
1.1104 1.1094 1.0862 1.0769 1.0853 1.0937
1.1122 1.1885 1.3186 1.3958 1.4293 1.5613
1.6301 1.6756 1.7686 1.7955 1.8346 1.8560
1.9192 2.0298 2.1126 2.2223 2.3171 2.3636
2.4073 2.4612 2.5095 2.5495 2.5365 2.5653
2.6239 2.6202 2.6564 2.6434 2.6332 2.6536
2.6044 2.6258 2.6425 2.6202 2.6444 2.6778
2.5905 2.4603 2.4994 2.4938 2.3971 2.3906
2.4603 2.5031 2.5078 2.5896 2.6426 2.6426
2.6630 2.6593 2.7383 2.7644 2.7030 2.7672
2.7086 2.5803 2.5608 2.5245 2.6064 2.5822
2.4437 2.3926 2.3879 2.4270 2.1722 2.2122
2.4855 2.3024 2.5153 2.6492 2.4168 2.5813
2.4140 2.1983 2.3145 2.1528 2.1695 2.2522
2.1677 2.2736 2.2523 2.1928 2.2188 2.1203
2.0654 2.0440 2.0190 2.0478 2.0803 2.1333
2.1975 2.3155 2.3583 2.2969 2.3750 2.4345
2.4410 2.5163 2.5470 2.5238 2.4829 2.5377
2.5452 2.4020 2.3844 2.3221 2.2189 2.3741
2.4569 2.4178 2.5508 2.6307 2.6140 2.6642
2.6670 2.6521 2.7126 2.6810 2.6438 2.7730
2.6921 2.6196 2.7888 2.6810 2.6670 2.9831
2.9329 2.8167 3.0463 3.0445 2.9627 3.0361
2.9738 3.0268 3.0854 2.9329 2.9320 2.9385
2.8130 2.7777 2.7080 2.6243 2.5890 2.6290
2.6783 2.6987 2.7898 2.7248 2.7675 2.9683
2.9042 2.8363 2.7359 2.5389 2.5742 2.5389
2.3911 2.4775 2.5603 2.5156 2.5045 2.4887
2.4041 2.3428 2.2284 2.0471 1.9895 1.9189
1.8324 1.8445 1.8120 1.8045 1.8538 1.8362
1.8111 1.8092 1.7516 1.7144 1.6586 1.5722
1.6224 1.6047 1.6122 1.5424 1.3091 1.4504
1.4337 1.3603 1.4365 1.1846 1.3817 1.5313
1.3026 1.4551 1.4495 1.3696 1.4282 1.3082
1.2469 1.1948 1.0991 1.0740 1.0461 1.0126
0.9216 0.8472 0.7849 0.6975 0.6241 0.5507
0.5358 0.4865 0.4428 0.4633 0.4828 0.4679
0.4243 0.3471 0.2551 0.1445 0.0125 -0.0582
-0.1102 -0.1279 -0.2125 -0.1632 -0.2673 -0.4263
-0.2636 -0.7386 -0.9812 -0.7786 -1.0993 -1.1142
-0.9747 -1.0509 -1.0500 -1.1058 -1.2471 -1.2982
-1.3744 -1.5436 -1.6338 -1.7370 -1.8067 -1.8541
-1.9805 -2.0902 -2.1859 -2.3403 -2.4816 -2.5606
-2.6349 -2.6535 -2.7111 -2.8069 -2.8171 -2.8524
-2.9073 -2.9454 -2.9956 -3.0244 -3.0188 -2.9946
-3.0253 -3.0597 -3.0736 -3.1090 -3.1434 -3.2447
-3.3358 -3.4780 -3.5756 -3.6797 -3.7959 -3.5170
-3.6462 -3.8666 -3.6434 -3.7782 -3.8470 -3.9037
-3.9995 -3.9734 -4.1157 -4.1305 -4.1101 -4.1166
-4.0868 -4.0329 -3.9781 -3.9734 -3.9502 -3.9669
-3.9818 -3.9548 -3.9260 -3.8655 -3.7531 -3.6378
-3.5011 -3.3942 -3.3357 -3.2669 -3.2315 -3.2362
-3.2352 -3.1804 -3.1646 -3.0809 -2.9907 -3.0028
-2.9731 -3.0037 -3.0586 -3.1330 -3.1841 -3.1645
-3.1478 -3.1078 -3.0260 -2.9600 -2.9582 -2.9107
-2.9712 -2.8196 -2.7639 -2.9591 -2.7685 -2.7862
-2.7471 -2.5835 -2.6300 -2.5184 -2.4403 -2.4570
-2.3873 -2.2488 -2.2395 -2.1633 -2.0963 -2.0424
-1.8797 -1.8528 -1.8063 -1.7468 -1.6817 -1.5915
-1.4800 -1.3470 -1.2587 -1.1091 -1.0031 -0.9203
-0.8646 -0.8971 -0.9148 -0.9445 -0.9715 -0.9826
-1.0170 -1.0309 -1.0040 -0.9798 -0.9751 -0.9584
-0.9584 -0.9621 -0.9352 -0.9705 -1.0253 -1.0318
-1.0420 -1.0513 -1.0207 -0.9965 -0.9983 -1.0141
-0.9240 -0.6888 -0.8022 -0.9258 -0.8217 -0.8115
-0.7715 -0.8849 -0.8756 -0.7287 -0.6962 -0.6376
-0.6274 -0.6134 -0.5353 -0.5037 -0.4935 -0.3922
-0.2992 -0.1811 -0.0435 0.0345 0.0903 0.1210
0.1117 0.0652 0.0848 0.0987 0.1294 0.2279
0.2874 0.3785 0.4780 0.5356 0.6017 0.6556
0.7123 0.7894 0.8545 0.8833 0.9168 0.9679
0.9912 1.0321 1.0981 1.1502 1.1725 1.2608
1.3482 1.3928 1.5155 1.3844 1.4281 1.8809
1.7228 1.7015 1.8325 1.5592 1.8679 1.7219
1.5602 1.8679 1.6364 1.6355 1.6885 1.6504
1.5853 1.4979 1.4989 1.3892 1.3306 1.2665
1.1949 1.0945 1.0294 0.9885 0.9346 0.9207
0.9216 0.9067 0.8723 0.8649 0.7943 0.7236
0.6874 0.6223 0.6037 0.5591 0.5005 0.5154
0.4634 0.4318 0.4197 0.3844 0.4364 0.4281
0.4494 0.5127 0.5489 0.5935 0.5694 0.5536
0.5368 0.5415 0.5434 0.5573 0.5731 0.5331
0.5973 0.6057 0.6243 0.6038 0.5834 0.5871
0.6494 0.9152 0.5453 0.5964 0.8223 0.4347
0.7665 0.6754 0.5527 0.8985 0.8000 0.8716
1.0306 1.0315 1.0203 1.1589 1.1868 1.1217
1.1719 1.1412 1.2007 1.2909 1.2835 1.3337
1.3959 1.4461 1.4889 1.4991 1.4982 1.5084
1.5298 1.5047 1.5103 1.5336 1.5484 1.5615
1.5466 1.4741 1.3755 1.3718 1.2798 1.2556
1.3105 1.2556 1.3114 1.3449 1.3626 1.3877
1.3616 1.3458 1.2919 1.2520 1.2185 1.1943
1.1283 1.0716 1.0224 0.9545 0.9173 0.8755
0.8300 0.7379 0.6673 0.5799 0.4786 0.4126
0.3354 0.2601 0.2016 0.1830 0.1319 0.0761
-0.0076 -0.1451 -0.2428 -0.3636 -0.4882 -0.5960
-0.7094 -0.8209 -0.9260 -0.9901 -1.0942 -1.1807
-1.2634 -1.3629 -1.3973 -1.4809 -1.5618 -1.6380
-1.7356 -1.7784 -1.8360 -1.8769 -1.9002 -1.9578
-1.9903 -2.0201 -2.0656 -2.0926 -2.1000 -2.1019
-2.1325 -2.1632 -2.1706 -2.1632 -2.1074 -2.0795
-2.0609 -1.9624 -1.9066 -1.8536 -1.7606 -1.7160
-1.6556 -1.6138 -1.5719 -1.5310 -1.5031 -1.4427
-1.4297 -1.3823 -1.3042 -1.3014 -1.2391 -1.1387
-1.0504 -0.9277 -0.8356 -0.7213 -0.6200 -0.5298
-0.3875 -0.2732 -0.1403 -0.0334 0.0801 0.2409
0.3088 0.4026 0.5077 0.6007 0.7113 0.7792
0.9502 1.0404 1.1399 1.2449 1.3509 1.4420
1.4820 1.6344 1.6205 1.9895 2.0360 2.1336
2.5157 2.1299 2.5659 2.6579 2.5111 2.9601
2.6738 2.9080 3.1070 3.0001 3.3264 3.3096
3.3022 3.4658 3.4500 3.4779 3.5988 3.6378
3.7271 3.8237 3.8498 3.9167 3.9121 3.8805
3.8619 3.8275 3.7940 3.7689 3.7540 3.7327
3.7262 3.6797 3.6592 3.6667 3.6658 3.6565
3.6565 3.6304 3.6054 3.6490 3.6184 3.6602
3.6342 3.5264 3.5152 3.3990 3.3572 3.2847
3.2019 3.2652 3.2494 3.2847 3.2782 3.2271
3.1871 3.0765 3.0774 2.9826 2.9789 2.9770
2.9333 2.9073 2.7074 3.2094 3.0161 2.5122
3.0356 2.6759 2.7019 2.8887 2.4072 2.6694
2.5718 2.3580 2.4853 2.4026 2.3821 2.3347
2.2641 2.1442 2.0726 2.0819 2.0094 2.0075
1.9722 1.9322 1.9099 1.7733 1.6822 1.5781
1.4377 1.3680 1.3280 1.2379 1.2128 1.2146
1.1217 1.0817 1.0129 0.9432 0.8261 0.7722
0.6411 0.5556 0.5258 0.3901 0.4078 0.1438
0.2990 -0.0719 0.0071 -0.2680 -0.6241 0.6672
-0.9234 -0.7217 0.0574 -1.0461 -0.3201 -0.9252
-0.7179 -0.5339 -1.1669 -0.9419 -1.1743 -1.2757
-1.4002 -1.5146 -1.5713 -1.6847 -1.7655 -1.8771
-1.9608 -2.0156 -2.0965 -2.1885 -2.2247 -2.3038
-2.3428 -2.4376 -2.5436 -2.5176 -2.5575 -2.5417
-2.5240 -2.4887 -2.4143 -2.4552 -2.4580 -2.4803
-2.4478 -2.4487 -2.4692 -2.4403 -2.3753 -2.4357
-2.4450 -2.3762 -2.4747 -2.4124 -2.6086 -2.2377
-2.2153 -2.6662 -2.2897 -2.4840 -2.3315 -2.2404
-2.4198 -2.1698 -2.2200 -2.2069 -2.2832 -2.1642
-2.1558 -2.2181 -2.0805 -2.1437 -2.0452 -2.0256
-2.0554 -1.9782 -1.9578 -1.9141 -1.9475 -1.9922
-2.0052 -1.9866 -1.9689 -1.9763 -1.8927 -1.8164
-1.7774 -1.7560 -1.7644 -1.7885 -1.8220 -1.8248
-1.8220 -1.7746 -1.7588 -1.7681 -1.6900 -1.7346
-1.8071 -1.8498 -1.9251 -1.9279 -2.0097 -1.9614
-2.0748 -1.9930 -2.3323 -2.6939 -1.2725 -2.1612
-2.7078 -1.4463 -2.8435 -2.2560 -1.8907 -2.6269
-1.9269 -2.3229 -2.1082 -2.1751 -2.3146 -2.0822
-2.4029 -2.2086 -2.2755 -2.4038 -2.3359 -2.4940
-2.5302 -2.5423 -2.6566 -2.6362 -2.6575 -2.6938
-2.6269 -2.6575 -2.5925 -2.4660 -2.5013 -2.4539
-2.4251 -2.4214 -2.3600 -2.5664 -2.5273 -2.6175
-2.5218 -2.5431 -2.5571 -2.3916 -2.6184 -2.2512
-2.8871 -2.1025 -3.4086 -3.2152 -0.7750 -3.7460
-2.3432 -2.4334 -3.3165 -1.7966 -3.2961 -2.3971
-2.5710 -2.6686 -2.3609 -2.7281 -2.3460 -2.5496
-2.5812 -2.5598 -2.5914 -2.6332 -2.6118 -2.6908
-2.6351 -2.6323 -2.6908 -2.6248 -2.6462 -2.5960
-2.4584 -2.4463 -2.3599 -2.2046 -2.1804 -2.0670
-2.0642 -2.0308 -1.9434 -1.9341 -2.0215 -1.9331
-1.9201 -1.9118 -1.7965 -1.8485 -1.3828 -1.5957
-1.2508 -1.2945 -1.1894 -1.0611 -2.1320 0.2738
-0.3862 -1.3326 0.3584 -0.6010 0.0237 0.1111
0.1474 0.4783 0.3408 0.6633 0.5220 0.7572
0.8019 1.0194 1.1133 1.1932 1.4610 1.5428
1.6367 1.7101 1.8960 1.9555 1.9964 2.2010
2.3618 2.4845 2.6230 2.7457 2.9038 3.0088
3.0860 3.1325 3.2040 3.2496 3.1994 3.2524
3.2003 3.2329 3.1985 3.1436 3.2636 3.2059
3.3826 3.1464 3.3909 3.2143 3.1929 3.2775
2.8927 3.5676 1.2027 4.1142 4.8002 -0.0235
4.7696 3.8781 1.1376 3.7703 2.4391 2.6389
2.7654 2.3694 3.0396 2.5627 2.7440 3.0573
2.4484 2.8528 2.9011 2.4800 2.8249 2.3731
2.6548 2.6260 2.3480 2.7524 2.5098 2.6781
2.6483 2.8073 2.5154 2.9449 2.9133 2.2421
3.0574 2.6037 2.8519 2.7553 2.6855 3.1568
2.7636 3.0063 2.7962 3.2675 2.8501 2.7655
3.3093 2.7042 3.0472 2.2766 3.2192 3.8690
2.4234 3.5511 3.4851 2.6345 3.1736 3.4200
3.1718 3.1988 3.3122 3.1858 3.4907 3.2982
3.2769 3.4321 3.2034 3.2918 3.2369 3.0482
3.0798 3.1616 2.9264 3.0426 3.1421 3.1300
3.0826 2.8307 3.2184 2.9004 2.6783 2.9265
2.6476 2.6885 2.5760 2.4784 2.5686 2.3948
2.1642 2.3446 2.1196 1.8993 2.1382 1.7859
1.9346 1.7004 1.7617 1.8315 1.1984 1.6892
1.2542 1.4950 1.3388 0.8917 1.8343 0.9484
1.1473 1.4132 0.7903 1.0460 1.0860 0.8526
1.1092 1.0572 0.7783 1.3537 0.2391 1.2505
0.8220 -0.1243 1.9189 -0.5148 0.7077 1.5592
-1.0000 1.5062 -0.3753 -0.3298 0.8313 -1.3421
1.2218 -0.7639 -0.3762 -0.2730 0.1425 -0.8364
-1.4406 1.5806 -3.4383 2.2546 -2.4585 -1.4499
2.0315 -5.2231 2.8607 -3.6140 -1.1607 0.5637
-5.0158 1.1307 -2.7113 -2.2205 -0.9153 -2.4547
-2.0067 -2.1572 -1.8021 -2.9734 -1.7752 -2.4501
-3.2988 -1.7659 -3.3276 -2.4222 -2.5820 -3.1556
-2.1526 -3.7078 -2.0642 -3.2327 -3.3647 -2.3273
-4.2516 -2.4026 -3.0459 -3.8788 -2.2669 -3.3154
-3.4047 -2.5671 -3.5813 -2.9343 -3.0756 -3.5450
-2.5169 -3.4316 -3.0616 -2.8357 -3.2299 -2.8153
-3.2076 -2.9696 -3.0393 -3.1555 -2.7957 -2.8487
-2.7567 -2.6135 -2.9128 -2.4573 -2.4657 -3.1313
-1.9572 -2.7436 -2.7167 -1.9330 -3.0430 -1.7740
-2.4508 -2.6200 -1.8791 -2.8459 -2.0101 -2.4415
-2.5939 -2.0352 -2.5809 -2.2453 -2.2537 -2.2295
-2.1905 -2.2983 -2.3522 -2.2537 -2.2360 -2.7119
-1.7442 -3.2706 -1.5471 -1.6875 -4.9904 -0.2150
-2.7147 -3.9446 -0.6249 -3.0986 -2.5929 -2.0575
-2.3391 -2.5269 -2.0128 -2.4228 -2.8123 -1.6828
-2.6171 -2.5371 -2.0695 -2.2703 -2.2907 -2.3502
-2.1922 -2.2294 -2.6719 -2.0314 -1.8492 -3.0790
-1.3862 -2.2238 -2.4720 -1.2161 -2.9349 -1.2198
-2.1996 -2.4431 -1.4429 -2.0211 -1.6437 -1.9681
-1.3453 -2.4385 -0.3032 -2.4561 